TimeUs,GyroX_dps,GyroY_dps,GyroZ_dps,AccelX_mps2,AccelY_mps2,AccelZ_mps2,ImuTempC,EspTempC,Status
1261381,-0.244,-0.366,0.305,0.4094,0.0156,9.9713,27.871,28.4,1
1271389,-0.183,-0.366,0.366,0.4028,0.0168,9.9647,27.811,28.4,1
1281392,-0.061,-0.366,0.305,0.4172,0.0126,9.9653,27.779,28.4,1
1291395,-0.122,-0.427,0.305,0.3879,0.0090,9.9635,27.844,28.4,1
1301405,-0.183,-0.366,0.305,0.4076,0.0138,9.9683,27.797,28.4,1
1311407,-0.183,-0.305,0.244,0.3938,0.0120,9.9784,27.846,28.4,1
1321420,-0.183,-0.183,0.244,0.4088,0.0209,9.9515,27.832,28.4,1
1331422,-0.244,-0.366,0.244,0.3992,0.0054,9.9425,27.791,28.4,1
1341429,-0.183,-0.427,0.366,0.4022,0.0060,9.9413,27.811,28.4,1
1351441,-0.061,-0.366,0.366,0.4004,0.0102,9.9581,27.818,28.4,1
1361445,-0.183,-0.366,0.244,0.3980,0.0144,9.9611,27.787,28.4,1
1371456,-0.183,-0.366,0.183,0.4082,0.0102,9.9695,27.801,28.4,1
1381468,-0.183,-0.366,0.244,0.4166,0.0317,9.9641,27.846,28.4,1
1391468,-0.122,-0.366,0.244,0.3998,0.0150,9.9347,27.846,28.4,1
1401471,-0.183,-0.305,0.305,0.4184,0.0120,9.9521,27.836,28.4,1
1411475,-0.244,-0.305,0.244,0.4100,0.0156,9.9760,27.807,28.4,1
1421475,-0.244,-0.244,0.183,0.4058,0.0144,9.9467,27.816,28.4,1
1431487,-0.183,-0.244,0.183,0.4178,-0.0060,9.9497,27.795,28.4,1
1441501,-0.244,-0.366,0.244,0.4130,0.0257,9.9509,27.844,28.4,1
1451501,-0.183,-0.366,0.244,0.4184,0.0389,9.9581,27.799,28.4,1
1461504,-0.122,-0.366,0.244,0.4118,0.0162,9.9533,27.826,28.4,1
1471507,-0.183,-0.366,0.183,0.4124,0.0066,9.9479,27.859,28.4,1
1481507,-0.122,-0.366,0.305,0.4028,0.0078,9.9587,27.814,28.4,1
1491519,-0.244,-0.366,0.244,0.3974,0.0060,9.9748,27.824,28.4,1
1501519,-0.244,-0.427,0.305,0.4130,-0.0042,9.9641,27.781,28.4,1
1511523,-0.183,-0.366,0.244,0.4322,0.0120,9.9533,27.795,28.4,1
1521527,-0.183,-0.366,0.305,0.4094,0.0162,9.9683,27.812,28.4,1
1531530,-0.122,-0.366,0.183,0.4016,0.0138,9.9778,27.826,28.4,1
1541532,-0.122,-0.366,0.244,0.3980,0.0006,9.9772,27.848,28.4,1
1551532,-0.122,-0.244,0.244,0.4124,0.0174,9.9557,27.805,28.4,1
1561542,-0.183,-0.305,0.244,0.4058,0.0204,9.9808,27.838,28.4,1
1571547,-0.244,-0.366,0.183,0.3938,0.0233,9.9856,27.844,28.4,1
1581547,-0.244,-0.305,0.244,0.4064,0.0018,9.9784,27.842,28.4,1
1591557,-0.183,-0.427,0.305,0.4130,0.0138,9.9784,27.842,28.4,1
1601568,-0.122,-0.305,0.305,0.4076,0.0156,9.9748,27.799,28.4,1
1611569,-0.122,-0.366,0.183,0.3891,0.0186,9.9347,27.812,28.4,1
1621578,-0.183,-0.427,0.244,0.3795,0.0287,9.9491,27.816,28.4,1
1631588,-0.244,-0.305,0.305,0.4046,0.0287,9.9713,27.820,28.4,1
1641603,-0.183,-0.366,0.244,0.4196,0.0078,9.9641,27.826,28.4,1
1651610,-0.122,-0.305,0.244,0.4100,0.0114,9.9539,27.803,28.4,1
1661610,-0.183,-0.305,0.305,0.4094,0.0215,9.9754,27.840,28.4,1
1671618,-0.122,-0.305,0.366,0.3974,0.0227,9.9611,27.855,28.4,1
1681623,-0.244,-0.366,0.244,0.3926,0.0215,9.9425,27.795,28.4,1
1691633,-0.183,-0.366,0.244,0.4028,0.0054,9.9581,27.867,28.4,1
1701638,-0.122,-0.305,0.305,0.4160,0.0102,9.9778,27.844,28.4,1
1711645,-0.183,-0.366,0.244,0.4076,0.0024,9.9611,27.812,28.4,1
1721660,-0.183,-0.366,0.122,0.4178,0.0215,9.9563,27.861,28.4,1
1731671,-0.183,-0.305,0.183,0.3962,0.0168,9.9635,27.795,28.4,1
1741671,-0.244,-0.305,0.366,0.4088,0.0150,9.9413,27.863,28.4,1
1751671,-0.244,-0.366,0.244,0.4094,0.0090,9.9862,27.826,28.4,1
1761685,-0.183,-0.244,0.244,0.3980,0.0030,9.9689,27.848,28.4,1
1771687,-0.305,-0.366,0.183,0.4172,0.0048,9.9491,27.844,28.4,1
1781694,-0.183,-0.427,0.244,0.4280,0.0126,9.9527,27.812,28.4,1
1791699,-0.122,-0.305,0.305,0.4184,0.0126,9.9515,27.812,28.4,1
1801699,-0.244,-0.366,0.366,0.4022,0.0269,9.9545,27.838,28.4,1
1811700,-0.244,-0.427,0.244,0.3980,0.0341,9.9455,27.812,28.4,1
1821704,-0.183,-0.427,0.244,0.4136,0.0215,9.9341,27.820,28.4,1
1831709,-0.183,-0.305,0.244,0.4094,0.0060,9.9701,27.830,28.4,1
1841721,-0.183,-0.244,0.305,0.4046,0.0192,9.9545,27.822,29.4,1
1851730,-0.122,-0.305,0.244,0.4100,0.0174,9.9551,27.838,28.4,1
1861732,-0.122,-0.366,0.183,0.4070,0.0174,9.9826,27.865,28.4,1
1871740,-0.122,-0.366,0.305,0.4136,0.0221,9.9395,27.848,28.4,1
1881740,-0.183,-0.305,0.244,0.3861,0.0084,9.9545,27.795,28.4,1
1891745,-0.244,-0.305,0.183,0.3885,0.0144,9.9551,27.832,28.4,1
1901758,-0.183,-0.366,0.305,0.4058,0.0162,9.9389,27.797,28.4,1
1911760,-0.183,-0.366,0.305,0.4136,0.0275,9.9683,27.844,29.4,1
1921773,-0.244,-0.366,0.244,0.4076,0.0144,9.9479,27.816,28.4,1
1931776,-0.244,-0.305,0.183,0.3938,-0.0012,9.9581,27.840,29.4,1
1941789,-0.244,-0.305,0.305,0.3962,0.0078,9.9617,27.854,29.4,1
1951801,-0.244,-0.244,0.305,0.3986,0.0012,9.9778,27.826,28.4,1
1961801,-0.305,-0.305,0.244,0.3915,0.0263,9.9754,27.816,28.4,1
1971812,-0.122,-0.488,0.183,0.4232,0.0084,9.9635,27.826,29.4,1
1981816,-0.244,-0.366,0.305,0.4160,-0.0018,9.9581,27.826,29.4,1
1991822,-0.305,-0.305,0.244,0.4028,0.0120,9.9707,27.869,28.4,1
2001836,-0.122,-0.366,0.183,0.4010,0.0120,9.9485,27.779,29.4,1
2011846,-0.061,-0.366,0.244,0.4076,0.0006,9.9760,27.836,29.4,1
2021850,-0.183,-0.305,0.244,0.4118,0.0066,9.9641,27.842,29.4,1
2031858,-0.183,-0.305,0.244,0.4046,0.0257,9.9443,27.812,28.4,1
2041862,-0.122,-0.305,0.305,0.4076,0.0168,9.9551,27.842,29.4,1
2051872,-0.183,-0.305,0.305,0.3819,0.0251,9.9587,27.820,29.4,1
2061877,-0.183,-0.366,0.305,0.4040,0.0168,9.9611,27.844,28.4,1
2071882,-0.122,-0.366,0.305,0.4184,0.0245,9.9623,27.838,29.4,1
2081887,-0.183,-0.305,0.244,0.4022,0.0198,9.9605,27.818,29.4,1
2091888,-0.244,-0.305,0.366,0.3885,0.0144,9.9419,27.850,29.4,1
2101892,-0.183,-0.366,0.244,0.4184,0.0108,9.9479,27.855,28.4,1
2111892,-0.244,-0.305,0.183,0.4142,0.0275,9.9497,27.799,28.4,1
2121898,-0.183,-0.244,0.244,0.4052,0.0132,9.9742,27.826,29.4,1
2131903,-0.122,-0.366,0.244,0.3938,0.0108,9.9683,27.797,29.4,1
2141911,-0.122,-0.427,0.244,0.4022,0.0162,9.9467,27.812,28.4,1
2151913,-0.122,-0.244,0.183,0.4238,0.0174,9.9808,27.822,28.4,1
2161919,-0.183,-0.366,0.244,0.4148,0.0251,9.9575,27.852,29.4,1
2171922,-0.122,-0.366,0.244,0.4124,0.0156,9.9443,27.816,29.4,1
2181926,-0.122,-0.366,0.305,0.4070,0.0084,9.9784,27.816,28.4,1
2191930,-0.122,-0.366,0.305,0.4046,-0.0066,9.9575,27.844,29.4,1
2201938,-0.183,-0.305,0.244,0.4064,0.0168,9.9617,27.793,28.4,1
2211943,-0.244,-0.366,0.183,0.4124,0.0090,9.9754,27.816,29.4,1
2221944,-0.183,-0.366,0.244,0.4106,0.0072,9.9545,27.822,29.4,1
2231949,-0.122,-0.305,0.305,0.4112,0.0048,9.9443,27.795,28.4,1
2241958,-0.244,-0.366,0.244,0.4112,0.0198,9.9665,27.861,29.4,1
2251958,-0.122,-0.366,0.183,0.4220,-0.0006,9.9467,27.840,29.4,1
2261965,-0.183,-0.366,0.244,0.4226,-0.0060,9.9772,27.797,28.4,1
2271968,-0.305,-0.305,0.305,0.4052,0.0114,9.9707,27.812,29.4,1
2281968,-0.244,-0.305,0.366,0.4136,0.0287,9.9617,27.830,29.4,1
2291971,-0.183,-0.305,0.305,0.4052,0.0233,9.9754,27.844,29.4,1
2301984,-0.183,-0.427,0.305,0.3819,0.0150,9.9503,27.836,28.4,1
2311991,-0.244,-0.427,0.366,0.4220,0.0156,9.9515,27.809,29.4,1
2321999,-0.122,-0.305,0.305,0.4010,0.0012,9.9461,27.873,29.4,1
2331999,-0.183,-0.427,0.244,0.4082,-0.0030,9.9719,27.830,29.4,1
2341999,-0.183,-0.366,0.244,0.4004,0.0281,9.9521,27.809,29.4,1
2351999,-0.183,-0.366,0.305,0.3950,0.0269,9.9587,27.844,29.4,1
2361999,-0.122,-0.305,0.244,0.3974,0.0150,9.9623,27.818,28.4,1
2372009,-0.183,-0.366,0.244,0.3986,0.0096,9.9599,27.818,29.4,1
2382018,-0.122,-0.366,0.305,0.4124,0.0150,9.9593,27.795,29.4,1
2392024,-0.183,-0.366,0.244,0.4136,0.0144,9.9575,27.840,29.4,1
2402034,-0.244,-0.366,0.305,0.4106,0.0293,9.9551,27.834,29.4,1
2412034,-0.244,-0.366,0.244,0.3986,0.0168,9.9665,27.807,29.4,1
2422045,-0.122,-0.366,0.244,0.3956,0.0317,9.9617,27.844,29.4,1
2432057,-0.122,-0.427,0.244,0.4058,0.0347,9.9647,27.855,29.4,1
2442060,-0.122,-0.305,0.305,0.4094,0.0066,9.9671,27.826,29.4,1
2452060,-0.183,-0.366,0.183,0.4118,0.0114,9.9395,27.852,29.4,1
2462064,-0.183,-0.305,0.244,0.4238,0.0186,9.9389,27.863,29.4,1
2472064,-0.244,-0.305,0.244,0.4136,0.0024,9.9647,27.850,29.4,1
2482064,-0.122,-0.244,0.305,0.4046,0.0192,9.9707,27.830,29.4,1
2492070,-0.122,-0.244,0.366,0.4094,0.0144,9.9629,27.844,29.4,1
2502070,-0.183,-0.427,0.244,0.4070,-0.0012,9.9599,27.816,29.4,1
2512085,-0.183,-0.366,0.244,0.4016,0.0293,9.9713,27.820,29.4,1
2522091,-0.122,-0.305,0.305,0.3926,0.0209,9.9713,27.801,29.4,1
2532091,-0.061,-0.305,0.183,0.3968,0.0239,9.9689,27.816,28.4,1
2542091,-0.244,-0.366,0.244,0.4154,0.0180,9.9641,27.828,29.4,1
2552094,-0.244,-0.305,0.244,0.3992,-0.0018,9.9641,27.869,29.4,1
2562094,-0.183,-0.305,0.305,0.3980,-0.0030,9.9683,27.830,29.4,1
2572103,-0.122,-0.366,0.244,0.4166,0.0042,9.9563,27.830,29.4,1
2582106,-0.122,-0.427,0.244,0.4064,0.0150,9.9575,27.857,29.4,1
2592118,-0.183,-0.366,0.305,0.3968,0.0090,9.9371,27.818,29.4,1
2602125,-0.244,-0.366,0.244,0.3885,0.0102,9.9575,27.830,29.4,1
2612130,-0.183,-0.427,0.305,0.4166,0.0168,9.9844,27.840,29.4,1
2622137,-0.183,-0.366,0.244,0.3974,0.0096,9.9563,27.836,29.4,1
2632137,-0.305,-0.366,0.244,0.4088,0.0084,9.9886,27.875,29.4,1
2642146,-0.244,-0.366,0.244,0.4064,0.0227,9.9653,27.795,29.4,1
2652153,-0.183,-0.305,0.305,0.4232,0.0066,9.9503,27.838,29.4,1
2662164,-0.244,-0.427,0.183,0.4064,0.0108,9.9671,27.842,29.4,1
2672167,-0.183,-0.427,0.305,0.4040,0.0000,9.9653,27.828,28.4,1
2682167,-0.244,-0.244,0.305,0.4064,0.0102,9.9437,27.811,29.4,1
2692179,-0.305,-0.427,0.305,0.4142,0.0168,9.9569,27.797,29.4,1
2702179,-0.244,-0.366,0.305,0.4184,0.0072,9.9736,27.824,29.4,1
2712182,-0.122,-0.427,0.244,0.4028,0.0078,9.9808,27.844,29.4,1
2722194,-0.183,-0.427,0.244,0.4190,0.0144,9.9533,27.838,29.4,1
2732207,-0.183,-0.366,0.305,0.4022,0.0060,9.9497,27.855,29.4,1
2742213,-0.122,-0.427,0.305,0.4064,0.0138,9.9407,27.812,28.4,1
2752224,-0.183,-0.305,0.305,0.3819,0.0263,9.9389,27.861,29.4,1
2762237,-0.244,-0.305,0.305,0.3932,0.0245,9.9485,27.811,29.4,1
2772237,-0.183,-0.244,0.305,0.4172,0.0090,9.9808,27.811,29.4,1
2782243,-0.183,-0.244,0.244,0.4082,0.0096,9.9820,27.820,29.4,1
2792252,-0.183,-0.244,0.244,0.3998,0.0239,9.9575,27.854,29.4,1
2802258,-0.183,-0.366,0.183,0.3789,0.0204,9.9623,27.818,29.4,1
2812270,-0.244,-0.305,0.244,0.4004,0.0215,9.9820,27.885,29.4,1
2822270,-0.183,-0.366,0.305,0.3968,0.0114,9.9593,27.812,29.4,1
2832283,-0.183,-0.366,0.244,0.3980,0.0192,9.9539,27.854,28.4,1
2842289,-0.244,-0.366,0.305,0.4034,0.0120,9.9659,27.799,29.4,1
2852300,0.061,-0.427,0.244,0.3992,0.0150,9.9623,27.840,29.4,1
2862303,-0.122,-0.305,0.244,0.4076,0.0198,9.9557,27.801,29.4,1
2872304,-0.305,-0.305,0.366,0.4064,0.0090,9.9611,27.805,29.4,1
2882305,-0.183,-0.305,0.244,0.4022,0.0162,9.9790,27.836,29.4,1
2892319,-0.183,-0.305,0.305,0.4208,0.0006,9.9689,27.832,29.4,1
2902329,-0.122,-0.305,0.366,0.4076,0.0221,9.9713,27.865,29.4,1
2912343,-0.183,-0.305,0.305,0.4004,0.0078,9.9497,27.852,29.4,1
2922353,-0.122,-0.305,0.366,0.4070,0.0018,9.9605,27.873,29.4,1
2932364,-0.183,-0.366,0.244,0.3986,0.0006,9.9922,27.828,29.4,1
2942375,-0.122,-0.427,0.244,0.3926,0.0048,9.9695,27.828,29.4,1
2952389,-0.183,-0.305,0.244,0.3974,0.0090,9.9515,27.842,29.4,1
2962397,-0.122,-0.366,0.244,0.4154,0.0048,9.9545,27.842,29.4,1
2972407,-0.061,-0.366,0.244,0.4028,0.0180,9.9689,27.773,29.4,1
2982407,-0.183,-0.427,0.183,0.4046,0.0198,9.9431,27.844,29.4,1
2992420,-0.122,-0.366,0.244,0.4232,0.0000,9.9515,27.826,29.4,1
3002429,-0.122,-0.366,0.305,0.3813,0.0168,9.9389,27.857,29.4,1
3012441,-0.183,-0.366,0.305,0.4052,0.0060,9.9437,27.820,29.4,1
3022441,-0.244,-0.366,0.305,0.4100,0.0072,9.9533,27.844,29.4,1
3032455,-0.244,-0.427,0.244,0.4028,-0.0042,9.9623,27.850,29.4,1
3042456,-0.183,-0.366,0.244,0.4094,0.0215,9.9491,27.818,29.4,1
3052468,-0.183,-0.366,0.183,0.4052,0.0287,9.9497,27.812,29.4,1
3062478,-0.183,-0.305,0.183,0.3962,0.0078,9.9533,27.885,29.4,1
3072486,-0.061,-0.305,0.244,0.3956,-0.0066,9.9491,27.824,28.4,1
3082499,-0.244,-0.366,0.244,0.4070,0.0060,9.9683,27.863,29.4,1
3092501,-0.122,-0.305,0.183,0.4100,0.0186,9.9635,27.877,29.4,1
3102501,-0.122,-0.366,0.244,0.4136,0.0257,9.9503,27.848,29.4,1
3112504,-0.183,-0.366,0.366,0.4136,0.0287,9.9599,27.834,29.4,1
3122515,-0.183,-0.305,0.305,0.4136,0.0192,9.9683,27.818,29.4,1
3132517,-0.122,-0.427,0.244,0.4100,0.0221,9.9683,27.855,29.4,1
3142527,-0.122,-0.427,0.183,0.4004,0.0114,9.9527,27.865,29.4,1
3152527,-0.122,-0.427,0.244,0.3879,0.0198,9.9599,27.855,29.4,1
3162527,-0.183,-0.366,0.244,0.4136,0.0138,9.9467,27.855,29.4,1
3172530,-0.122,-0.305,0.244,0.4160,0.0323,9.9736,27.828,29.4,1
3182542,-0.183,-0.305,0.244,0.4238,0.0150,9.9569,27.836,29.4,1
3192549,-0.244,-0.305,0.244,0.4016,0.0126,9.9641,27.871,29.4,1
3202563,-0.244,-0.305,0.244,0.4016,0.0120,9.9659,27.873,29.4,1
3212565,-0.244,-0.427,0.305,0.3962,0.0078,9.9407,27.822,29.4,1
3222570,-0.183,-0.366,0.305,0.4058,0.0072,9.9449,27.826,29.4,1
3232578,-0.183,-0.244,0.244,0.4040,0.0251,9.9659,27.852,29.4,1
3242583,-0.244,-0.366,0.305,0.3956,0.0072,9.9778,27.857,29.4,1
3252595,-0.244,-0.427,0.244,0.4136,0.0024,9.9677,27.850,29.4,1
3262602,-0.183,-0.305,0.244,0.4010,0.0084,9.9569,27.844,29.4,1
3272608,-0.183,-0.366,0.305,0.4118,-0.0144,9.9539,27.842,29.4,1
3282610,-0.122,-0.305,0.305,0.4214,0.0012,9.9713,27.816,29.4,1
3292614,-0.244,-0.366,0.305,0.4160,0.0126,9.9707,27.842,29.4,1
3302621,-0.244,-0.427,0.183,0.3938,0.0054,9.9856,27.793,29.4,1
3312623,-0.122,-0.488,0.305,0.4010,0.0012,9.9647,27.840,29.4,1
3322626,-0.122,-0.366,0.305,0.4136,0.0066,9.9730,27.881,29.4,1
3332638,-0.122,-0.305,0.305,0.4130,0.0108,9.9551,27.863,29.4,1
3342644,-0.183,-0.366,0.305,0.4052,0.0036,9.9401,27.867,29.4,1
3352654,-0.122,-0.427,0.305,0.4076,0.0012,9.9671,27.857,29.4,1
3362654,-0.122,-0.305,0.305,0.4034,0.0012,9.9719,27.857,29.4,1
3372660,-0.183,-0.427,0.244,0.3891,0.0102,9.9623,27.834,29.4,1
3382671,-0.183,-0.244,0.244,0.4064,0.0132,9.9659,27.812,29.4,1
3392684,-0.244,-0.366,0.244,0.4052,0.0072,9.9515,27.881,29.4,1
3402690,-0.183,-0.366,0.244,0.4094,-0.0084,9.9473,27.834,29.4,1
3412690,-0.122,-0.366,0.305,0.3932,0.0245,9.9551,27.877,29.4,1
3422694,-0.122,-0.366,0.244,0.4022,0.0377,9.9617,27.834,29.4,1
3432705,-0.061,-0.366,0.183,0.4106,0.0168,9.9665,27.838,29.4,1
3442715,-0.183,-0.366,0.244,0.4262,0.0120,9.9455,27.824,29.4,1
3452717,-0.122,-0.366,0.244,0.4172,0.0168,9.9563,27.842,29.4,1
3462730,-0.183,-0.366,0.244,0.4052,0.0215,9.9641,27.811,29.4,1
3472730,-0.183,-0.366,0.244,0.4076,0.0048,9.9623,27.844,29.4,1
3482736,-0.244,-0.427,0.244,0.4022,0.0215,9.9742,27.850,29.4,1
3492745,-0.244,-0.427,0.244,0.3711,0.0162,9.9617,27.836,29.4,1
3502754,-0.122,-0.366,0.305,0.4046,0.0329,9.9796,27.830,29.4,1
3512758,-0.183,-0.305,0.305,0.4010,0.0132,9.9862,27.812,29.4,1
3522766,-0.183,-0.366,0.183,0.4040,0.0251,9.9485,27.816,29.4,1
3532778,-0.183,-0.305,0.305,0.4046,0.0132,9.9647,27.828,29.4,1
3542791,-0.244,-0.366,0.244,0.4076,0.0215,9.9707,27.838,29.4,1
3552791,-0.122,-0.366,0.244,0.3968,0.0263,9.9742,27.838,29.4,1
3562793,-0.122,-0.305,0.244,0.4064,0.0042,9.9766,27.850,29.4,1
3572797,-0.122,-0.305,0.244,0.3980,0.0180,9.9635,27.812,29.4,1
3582801,-0.122,-0.366,0.183,0.4226,0.0066,9.9461,27.824,29.4,1
3592806,-0.061,-0.366,0.244,0.4124,0.0156,9.9778,27.859,29.4,1
3602808,-0.122,-0.305,0.244,0.4016,0.0198,9.9581,27.814,29.4,1
3612808,-0.122,-0.366,0.244,0.4076,0.0048,9.9695,27.846,29.4,1
3622812,-0.183,-0.366,0.244,0.4202,0.0221,9.9455,27.846,29.4,1
3632812,-0.244,-0.305,0.305,0.3998,0.0054,9.9294,27.881,29.4,1
3642821,-0.305,-0.366,0.305,0.3974,0.0084,9.9527,27.803,29.4,1
3652823,-0.183,-0.366,0.244,0.4124,0.0251,9.9503,27.834,29.4,1
3662837,-0.244,-0.366,0.183,0.4034,0.0126,9.9665,27.846,29.4,1
3672842,-0.183,-0.366,0.244,0.3932,0.0156,9.9832,27.865,28.4,1
3682852,-0.061,-0.366,0.183,0.4184,0.0251,9.9611,27.812,29.4,1
3692858,-0.122,-0.427,0.183,0.3956,-0.0042,9.9611,27.836,29.4,1
3702865,-0.183,-0.427,0.244,0.3992,0.0084,9.9509,27.791,29.4,1
3712869,-0.183,-0.366,0.305,0.4142,0.0263,9.9431,27.809,29.4,1
3722877,-0.244,-0.366,0.244,0.4232,0.0192,9.9766,27.859,29.4,1
3732882,-0.244,-0.427,0.244,0.4070,0.0168,9.9826,27.832,29.4,1
3742884,-0.244,-0.366,0.305,0.4190,0.0114,9.9587,27.809,29.4,1
3752884,-0.183,-0.366,0.305,0.4292,0.0299,9.9754,27.809,29.4,1
3762897,-0.122,-0.305,0.244,0.4058,0.0257,9.9748,27.801,29.4,1
3772903,-0.244,-0.305,0.305,0.4046,0.0138,9.9551,27.830,29.4,1
3782915,-0.244,-0.366,0.244,0.3986,0.0132,9.9611,27.816,29.4,1
3792922,-0.183,-0.366,0.244,0.4016,0.0239,9.9605,27.826,29.4,1
3802930,-0.244,-0.366,0.244,0.3831,0.0162,9.9623,27.867,29.4,1
3812934,-0.305,-0.366,0.305,0.3938,0.0000,9.9760,27.848,29.4,1
3822943,-0.244,-0.305,0.244,0.4112,0.0132,9.9479,27.840,29.4,1
3832949,-0.122,-0.366,0.244,0.4094,0.0299,9.9647,27.805,29.4,1
3842956,-0.122,-0.305,0.244,0.4070,0.0180,9.9707,27.875,29.4,1
3852958,-0.183,-0.366,0.305,0.4232,-0.0072,9.9425,27.840,29.4,1
3862968,-0.183,-0.427,0.244,0.4244,0.0126,9.9754,27.852,29.4,1
3872968,-0.244,-0.427,0.244,0.3992,0.0102,9.9671,27.779,29.4,1
3882971,-0.183,-0.366,0.244,0.4082,-0.0060,9.9317,27.848,29.4,1
3892984,-0.122,-0.305,0.366,0.4070,0.0174,9.9449,27.838,29.4,1
3902993,-0.183,-0.305,0.305,0.4088,0.0317,9.9730,27.865,29.4,1
3913000,-0.244,-0.366,0.244,0.4022,0.0066,9.9659,27.826,29.4,1
3923011,-0.122,-0.305,0.244,0.3699,0.0108,9.9647,27.838,29.4,1
3933018,-0.122,-0.366,0.183,0.4010,0.0144,9.9521,27.836,29.4,1
3943024,-0.183,-0.366,0.183,0.4172,-0.0078,9.9485,27.869,29.4,1
3953034,-0.244,-0.427,0.366,0.4034,-0.0096,9.9551,27.869,29.4,1
3963042,-0.183,-0.305,0.183,0.4010,0.0132,9.9533,27.830,29.4,1
3973045,-0.122,-0.305,0.183,0.4184,0.0198,9.9695,27.840,29.4,1
3983057,-0.122,-0.366,0.244,0.4028,0.0072,9.9653,27.779,29.4,1
3993060,-0.183,-0.366,0.244,0.4034,0.0180,9.9754,27.832,29.4,1
4003070,-0.244,-0.366,0.305,0.4052,0.0192,9.9527,27.859,29.4,1
4013079,-0.305,-0.305,0.305,0.3992,0.0078,9.9545,27.855,29.4,1
4023079,-0.183,-0.305,0.183,0.4034,0.0132,9.9736,27.852,29.4,1
4033091,-0.183,-0.305,0.244,0.4118,0.0054,9.9611,27.861,29.4,1
4043101,-0.183,-0.366,0.305,0.4148,0.0311,9.9635,27.779,29.4,1
4053103,-0.183,-0.366,0.305,0.4142,0.0174,9.9467,27.824,29.4,1
4063115,-0.183,-0.305,0.244,0.4190,0.0168,9.9760,27.846,29.4,1
4073121,-0.183,-0.366,0.305,0.4124,0.0156,9.9515,27.828,29.4,1
4083125,-0.183,-0.427,0.183,0.4022,-0.0006,9.9521,27.807,29.4,1
4093125,-0.183,-0.305,0.244,0.3956,0.0072,9.9677,27.873,29.4,1
4103133,-0.122,-0.366,0.305,0.3962,0.0198,9.9605,27.824,29.4,1
4113133,-0.122,-0.366,0.244,0.4208,0.0096,9.9467,27.850,29.4,1
4123146,-0.122,-0.305,0.183,0.4046,0.0126,9.9509,27.867,29.4,1
4133151,-0.122,-0.366,0.244,0.4100,0.0293,9.9503,27.863,29.4,1
4143155,-0.183,-0.366,0.244,0.3992,0.0114,9.9719,27.863,29.4,1
4153163,-0.183,-0.305,0.244,0.3974,0.0132,9.9461,27.855,29.4,1
4163163,-0.244,-0.366,0.244,0.4130,0.0054,9.9581,27.844,29.4,1
4173165,-0.244,-0.366,0.305,0.4118,0.0114,9.9437,27.838,29.4,1
4183167,-0.122,-0.366,0.244,0.4154,0.0239,9.9503,27.799,29.4,1
4193179,-0.183,-0.366,0.305,0.4142,0.0054,9.9838,27.867,29.4,1
4203191,-0.244,-0.366,0.305,0.4148,0.0078,9.9539,27.895,29.4,1
4213204,-0.244,-0.366,0.305,0.3980,-0.0060,9.9593,27.895,29.4,1
4223216,-0.183,-0.488,0.305,0.4004,-0.0018,9.9317,27.904,29.4,1
4233216,-0.183,-0.427,0.305,0.3879,0.0090,9.9635,27.789,29.4,1
4243229,-0.183,-0.366,0.183,0.3974,0.0209,9.9766,27.840,29.4,1
4253240,-0.183,-0.366,0.244,0.4112,0.0180,9.9635,27.832,29.4,1
4263243,-0.061,-0.305,0.305,0.4028,0.0138,9.9593,27.844,29.4,1
4273250,-0.183,-0.366,0.366,0.4184,0.0168,9.9994,27.846,29.4,1
4283262,-0.183,-0.549,0.244,0.4112,0.0006,9.9689,27.812,29.4,1
4293262,-0.244,-0.366,0.183,0.4046,0.0072,9.9449,27.857,29.4,1
4303270,-0.305,-0.305,0.244,0.4106,0.0096,9.9677,27.840,29.4,1
4313274,-0.183,-0.305,0.244,0.4172,0.0114,9.9695,27.799,29.4,1
4323277,-0.183,-0.366,0.244,0.4082,0.0192,9.9539,27.854,29.4,1
4333277,-0.122,-0.366,0.244,0.3944,0.0108,9.9611,27.896,29.4,1
4343289,-0.183,-0.366,0.305,0.3909,0.0102,9.9719,27.896,29.4,1
4353299,-0.183,-0.305,0.305,0.3885,0.0227,9.9515,27.844,29.4,1
4363300,-0.183,-0.305,0.305,0.4070,-0.0054,9.9796,27.834,29.4,1
4373313,-0.305,-0.366,0.366,0.4298,0.0168,9.9617,27.814,29.4,1
4383319,-0.183,-0.366,0.244,0.4046,0.0168,9.9635,27.828,29.4,1
4393331,-0.244,-0.305,0.244,0.3879,0.0251,9.9677,27.844,29.4,1
4403344,-0.244,-0.244,0.305,0.4088,0.0162,9.9695,27.826,29.4,1
4413344,-0.183,-0.366,0.305,0.4028,-0.0066,9.9647,27.828,29.4,1
4423356,-0.183,-0.305,0.305,0.4064,0.0108,9.9695,27.830,29.4,1
4433359,-0.122,-0.366,0.305,0.4106,0.0042,9.9653,27.828,29.4,1
4443361,-0.183,-0.427,0.305,0.3974,0.0305,9.9713,27.828,29.4,1
4453361,-0.183,-0.366,0.305,0.3885,0.0311,9.9760,27.904,29.4,1
4463365,-0.183,-0.305,0.305,0.4226,0.0114,9.9683,27.842,29.4,1
4473375,-0.183,-0.305,0.183,0.4106,0.0132,9.9575,27.838,29.4,1
4483380,-0.244,-0.305,0.244,0.3950,0.0108,9.9665,27.820,29.4,1
4493380,-0.244,-0.305,0.244,0.3944,0.0042,9.9599,27.854,29.4,1
4503392,-0.183,-0.366,0.244,0.3974,0.0048,9.9569,27.861,29.4,1
4513395,-0.122,-0.366,0.244,0.4010,0.0018,9.9653,27.812,29.4,1
4523407,-0.183,-0.305,0.244,0.4118,0.0126,9.9587,27.850,29.4,1
4533411,-0.122,-0.366,0.244,0.4178,-0.0036,9.9605,27.803,29.4,1
4543414,-0.122,-0.366,0.305,0.4124,0.0245,9.9772,27.803,29.4,1
4553422,-0.244,-0.305,0.366,0.4088,0.0299,9.9581,27.830,29.4,1
4563426,-0.183,-0.366,0.305,0.4142,0.0174,9.9790,27.869,29.4,1
4573427,-0.183,-0.366,0.305,0.4082,0.0239,9.9533,27.867,29.4,1
4583429,-0.122,-0.366,0.305,0.4112,0.0000,9.9473,27.844,29.4,1
4593437,-0.061,-0.366,0.244,0.4232,0.0221,9.9820,27.855,29.4,1
4603437,-0.183,-0.366,0.183,0.4178,0.0024,9.9730,27.861,29.4,1
4613441,-0.244,-0.305,0.305,0.3974,0.0048,9.9371,27.818,29.4,1
4623441,-0.183,-0.366,0.244,0.4058,0.0066,9.9623,27.865,29.4,1
4633441,-0.183,-0.366,0.183,0.4208,0.0120,9.9527,27.830,29.4,1
4643445,-0.183,-0.305,0.305,0.3932,0.0245,9.9377,27.812,29.4,1
4653456,-0.122,-0.366,0.366,0.4040,0.0263,9.9539,27.803,29.4,1
4663456,-0.122,-0.305,0.244,0.4148,0.0054,9.9677,27.834,29.4,1
4673463,-0.122,-0.305,0.305,0.4076,0.0114,9.9689,27.793,29.4,1
4683471,-0.122,-0.427,0.244,0.4124,0.0042,9.9760,27.836,29.4,1
4693487,-0.183,-0.366,0.244,0.4016,0.0162,9.9736,27.822,29.4,1
4703489,-0.183,-0.366,0.244,0.4148,0.0168,9.9707,27.865,29.4,1
4713489,-0.122,-0.366,0.183,0.4130,0.0162,9.9665,27.850,29.4,1
4723501,-0.183,-0.366,0.183,0.4118,0.0215,9.9623,27.850,29.4,1
4733504,-0.244,-0.427,0.244,0.3903,0.0132,9.9653,27.850,29.4,1
4743511,-0.244,-0.366,0.305,0.3974,0.0066,9.9683,27.848,29.4,1
4753517,-0.244,-0.305,0.244,0.4028,0.0204,9.9593,27.895,29.4,1
4763517,-0.183,-0.427,0.244,0.3926,0.0251,9.9754,27.867,29.4,1
4773522,-0.244,-0.427,0.244,0.4082,0.0144,9.9659,27.834,29.4,1
4783532,-0.122,-0.427,0.366,0.4034,-0.0042,9.9641,27.873,29.4,1
4793538,-0.244,-0.305,0.305,0.4268,-0.0012,9.9569,27.865,29.4,1
4803550,-0.244,-0.427,0.305,0.3897,0.0036,9.9629,27.812,29.4,1
4813562,-0.183,-0.427,0.183,0.3843,0.0150,9.9563,27.834,29.4,1
4823565,-0.122,-0.366,0.244,0.4040,0.0317,9.9599,27.859,29.4,1
4833565,-0.122,-0.305,0.183,0.3980,0.0359,9.9671,27.828,29.4,1
4843565,-0.183,-0.427,0.305,0.4094,0.0245,9.9677,27.840,29.4,1
4853578,-0.305,-0.366,0.305,0.4076,0.0126,9.9467,27.848,29.4,1
4863580,-0.183,-0.305,0.305,0.4178,0.0102,9.9671,27.824,29.4,1
4873580,-0.183,-0.427,0.366,0.3998,0.0162,9.9575,27.838,29.4,1
4883593,-0.183,-0.366,0.305,0.4124,0.0150,9.9587,27.844,29.4,1
4893593,-0.244,-0.427,0.183,0.3921,0.0090,9.9539,27.811,29.4,1
4903595,-0.122,-0.427,0.183,0.3926,0.0078,9.9599,27.814,29.4,1
4913595,-0.122,-0.305,0.244,0.3998,0.0162,9.9455,27.846,29.4,1
4923608,-0.183,-0.305,0.305,0.4022,0.0269,9.9754,27.846,29.4,1
4933608,-0.183,-0.427,0.244,0.4052,0.0186,9.9820,27.846,29.4,1
4943614,-0.305,-0.366,0.244,0.4100,0.0192,9.9766,27.828,29.4,1
4953618,-0.244,-0.305,0.244,0.4178,0.0168,9.9527,27.910,29.4,1
4963623,-0.183,-0.366,0.244,0.4022,0.0006,9.9748,27.787,29.4,1
4973629,-0.244,-0.366,0.305,0.4178,0.0060,9.9689,27.844,29.4,1
4983636,-0.183,-0.427,0.305,0.4214,0.0168,9.9545,27.854,29.4,1
4993648,-0.183,-0.305,0.244,0.4064,0.0126,9.9778,27.859,29.4,1
5003656,-0.122,-0.305,0.183,0.4166,0.0078,9.9677,27.832,29.4,1
5013660,-0.183,-0.305,0.305,0.4106,0.0132,9.9724,27.846,29.4,1
5023671,-0.061,-0.305,0.244,0.4178,0.0215,9.9665,27.877,29.4,1
5033679,-0.183,-0.244,0.244,0.4178,0.0126,9.9641,27.857,29.4,1
5043682,-0.244,-0.488,0.244,0.4118,0.0269,9.9377,27.848,29.4,1
5053687,-0.183,-0.427,0.244,0.4034,0.0030,9.9581,27.840,29.4,1
5063690,-0.183,-0.305,0.305,0.4100,0.0018,9.9569,27.855,29.4,1
5073694,-0.244,-0.366,0.366,0.4214,0.0227,9.9557,27.846,29.4,1
5083702,-0.122,-0.305,0.244,0.4124,0.0054,9.9575,27.877,29.4,1
5093705,-0.183,-0.427,0.122,0.4160,0.0186,9.9635,27.812,29.4,1
5103715,-0.122,-0.366,0.183,0.4142,0.0198,9.9539,27.826,29.4,1
5113717,-0.244,-0.305,0.244,0.4064,0.0096,9.9551,27.850,29.4,1
5123730,-0.305,-0.366,0.244,0.3926,0.0018,9.9443,27.850,29.4,1
5133740,-0.244,-0.366,0.305,0.4040,0.0215,9.9455,27.814,29.4,1
5143740,-0.244,-0.427,0.366,0.4028,0.0006,9.9611,27.818,29.4,1
5153745,-0.244,-0.427,0.244,0.3903,0.0090,9.9802,27.822,29.4,1
5163751,-0.183,-0.366,0.183,0.4022,0.0156,9.9557,27.844,29.4,1
5173763,-0.244,-0.366,0.244,0.4094,0.0239,9.9515,27.838,29.4,1
5183776,-0.244,-0.366,0.366,0.4190,0.0239,9.9593,27.803,29.4,1
5193781,-0.244,-0.366,0.305,0.4082,0.0126,9.9503,27.867,29.4,1
5203789,-0.183,-0.244,0.305,0.3932,0.0221,9.9563,27.838,29.4,1
5213791,-0.244,-0.366,0.244,0.3938,0.0078,9.9689,27.840,29.4,1
5223797,-0.244,-0.305,0.305,0.4166,0.0030,9.9671,27.877,29.4,1
5233797,-0.183,-0.305,0.366,0.4130,0.0126,9.9455,27.857,29.4,1
5243797,-0.122,-0.366,0.305,0.3992,-0.0018,9.9437,27.793,29.4,1
5253797,-0.183,-0.366,0.305,0.3980,0.0102,9.9563,27.855,29.4,1
5263806,-0.122,-0.305,0.305,0.4028,0.0084,9.9623,27.834,29.4,1
5273808,-0.122,-0.366,0.244,0.4130,0.0138,9.9695,27.842,29.4,1
5283821,-0.183,-0.305,0.244,0.3998,0.0018,9.9683,27.887,29.4,1
5293821,-0.122,-0.244,0.183,0.4040,0.0132,9.9814,27.883,29.4,1
5303827,-0.244,-0.366,0.244,0.3915,-0.0054,9.9653,27.834,29.4,1
5313839,-0.122,-0.366,0.244,0.4274,-0.0084,9.9730,27.826,29.4,1
5323844,-0.244,-0.244,0.305,0.4148,0.0186,9.9485,27.826,29.4,1
5333858,-0.183,-0.305,0.305,0.4058,0.0144,9.9563,27.852,29.4,1
5343869,-0.183,-0.366,0.244,0.3944,0.0192,9.9527,27.824,29.4,1
5353873,-0.183,-0.366,0.244,0.3938,0.0042,9.9539,27.834,29.4,1
5363882,-0.183,-0.427,0.244,0.4082,0.0150,9.9683,27.850,29.4,1
5373888,-0.183,-0.427,0.244,0.4112,0.0162,9.9802,27.812,29.4,1
5383900,-0.183,-0.366,0.305,0.4124,0.0287,9.9665,27.820,29.4,1
5393900,-0.305,-0.305,0.244,0.3926,0.0227,9.9479,27.846,29.4,1
5403907,-0.183,-0.305,0.244,0.3944,0.0150,9.9395,27.869,29.4,1
5413915,-0.183,-0.366,0.305,0.4262,0.0174,9.9491,27.822,29.4,1
5423922,-0.244,-0.305,0.305,0.4100,0.0162,9.9497,27.811,29.4,1
5433930,-0.244,-0.305,0.244,0.4016,0.0096,9.9569,27.807,29.4,1
5443934,-0.122,-0.305,0.244,0.4136,0.0305,9.9503,27.844,29.4,1
5453938,-0.183,-0.305,0.305,0.4142,0.0209,9.9659,27.873,29.4,1
5463945,-0.244,-0.366,0.183,0.4124,0.0108,9.9653,27.857,29.4,1
5473949,-0.244,-0.305,0.305,0.4040,0.0221,9.9653,27.816,29.4,1
5483961,-0.183,-0.427,0.244,0.4208,0.0299,9.9742,27.848,29.4,1
5493964,-0.244,-0.427,0.244,0.4040,0.0383,9.9497,27.877,29.4,1
5503981,-0.244,-0.305,0.244,0.3998,0.0239,9.9413,27.824,29.4,1
5513981,-0.244,-0.305,0.244,0.4118,0.0287,9.9695,27.834,29.4,1
5523993,-0.244,-0.305,0.366,0.4058,0.0042,9.9581,27.834,29.4,1
5534001,-0.183,-0.305,0.244,0.4010,0.0120,9.9539,27.832,29.4,1
5544015,-0.183,-0.366,0.244,0.4160,0.0221,9.9455,27.846,29.4,1
5554015,-0.183,-0.366,0.183,0.4028,0.0233,9.9347,27.846,29.4,1
5564018,-0.183,-0.366,0.244,0.4178,0.0114,9.9647,27.859,29.4,1
5574018,-0.183,-0.427,0.244,0.4136,0.0192,9.9808,27.855,29.4,1
5584026,-0.183,-0.488,0.305,0.4046,0.0132,9.9784,27.811,29.4,1
5594026,-0.244,-0.366,0.305,0.4040,0.0138,9.9575,27.852,29.4,1
5604026,-0.183,-0.366,0.305,0.4100,0.0251,9.9527,27.795,29.4,1
5614040,-0.183,-0.366,0.244,0.4034,0.0287,9.9581,27.836,29.4,1
5624042,-0.183,-0.305,0.305,0.3861,0.0239,9.9730,27.875,29.4,1
5634054,-0.244,-0.366,0.366,0.3903,-0.0036,9.9611,27.807,29.4,1
5644060,-0.244,-0.305,0.366,0.4022,0.0006,9.9521,27.885,29.4,1
5654060,-0.244,-0.305,0.244,0.4016,0.0192,9.9928,27.846,29.4,1
5664070,-0.183,-0.427,0.305,0.4082,0.0042,9.9874,27.840,29.4,1
5674070,-0.244,-0.366,0.305,0.4106,-0.0006,9.9623,27.904,29.4,1
5684072,-0.244,-0.427,0.183,0.3897,0.0198,9.9551,27.840,29.4,1
5694085,-0.183,-0.366,0.244,0.4274,0.0108,9.9503,27.852,29.4,1
5704094,-0.183,-0.366,0.305,0.4016,0.0054,9.9569,27.830,29.4,1
5714106,-0.183,-0.305,0.366,0.4232,0.0204,9.9533,27.830,29.4,1
5724116,-0.244,-0.305,0.244,0.4262,0.0233,9.9659,27.814,29.4,1
5734118,-0.183,-0.305,0.244,0.4040,0.0066,9.9724,27.854,29.4,1
5744120,-0.183,-0.427,0.305,0.4040,0.0174,9.9449,27.875,29.4,1
5754121,-0.183,-0.366,0.366,0.4022,0.0227,9.9395,27.836,29.4,1
5764122,-0.122,-0.305,0.305,0.4040,-0.0006,9.9581,27.865,29.4,1
5774136,-0.183,-0.244,0.305,0.3921,0.0078,9.9629,27.803,29.4,1
5784148,-0.183,-0.366,0.244,0.4088,0.0233,9.9808,27.844,29.4,1
5794148,-0.183,-0.366,0.183,0.4160,0.0168,9.9323,27.871,29.4,1
5804152,-0.183,-0.427,0.305,0.4106,0.0054,9.9724,27.844,29.4,1
5814164,-0.183,-0.305,0.244,0.4016,0.0251,9.9629,27.844,29.4,1
5824179,-0.244,-0.366,0.305,0.4112,0.0347,9.9671,27.820,29.4,1
5834186,-0.244,-0.305,0.244,0.4094,0.0198,9.9575,27.789,29.4,1
5844186,-0.244,-0.366,0.305,0.3974,0.0263,9.9563,27.820,29.4,1
5854194,-0.183,-0.427,0.305,0.4022,0.0162,9.9581,27.881,29.4,1
5864198,-0.244,-0.305,0.244,0.4112,0.0012,9.9533,27.861,29.4,1
5874209,-0.183,-0.244,0.244,0.3992,0.0132,9.9593,27.846,29.4,1
5884222,-0.183,-0.366,0.244,0.4010,0.0132,9.9545,27.854,29.4,1
5894224,-0.183,-0.366,0.305,0.3974,0.0215,9.9569,27.861,29.4,1
5904224,-0.122,-0.366,0.305,0.3765,0.0024,9.9515,27.824,29.4,1
5914229,-0.183,-0.305,0.183,0.4154,-0.0012,9.9677,27.824,29.4,1
5924231,-0.183,-0.366,0.244,0.4010,0.0060,9.9677,27.836,29.4,1
5934237,-0.183,-0.305,0.305,0.4046,-0.0114,9.9515,27.812,29.4,1
5944244,-0.122,-0.366,0.244,0.3956,0.0287,9.9677,27.902,29.4,1
5954253,-0.244,-0.366,0.305,0.4100,0.0036,9.9611,27.904,29.4,1
5964259,-0.183,-0.305,0.305,0.3962,0.0042,9.9653,27.836,29.4,1
5974262,-0.244,-0.305,0.244,0.4022,0.0317,9.9569,27.830,29.4,1
5984270,-0.305,-0.427,0.244,0.4094,-0.0018,9.9701,27.867,29.4,1
5994270,-0.244,-0.366,0.244,0.4178,0.0233,9.9653,27.824,29.4,1
6004277,-0.061,-0.427,0.305,0.4058,0.0120,9.9707,27.879,29.4,1
6014285,-0.183,-0.366,0.244,0.3938,0.0078,9.9689,27.857,29.4,1
6024299,-0.061,-0.244,0.305,0.4124,0.0257,9.9539,27.844,29.4,1
6034308,-0.183,-0.366,0.244,0.4196,0.0257,9.9641,27.832,29.4,1
6044319,-0.244,-0.366,0.305,0.4130,0.0024,9.9605,27.818,29.4,1
6054319,-0.122,-0.305,0.305,0.4148,-0.0036,9.9617,27.811,29.4,1
6064320,-0.122,-0.244,0.244,0.4208,0.0012,9.9724,27.838,29.4,1
6074331,-0.244,-0.305,0.244,0.4136,0.0054,9.9677,27.811,29.4,1
6084334,-0.122,-0.305,0.183,0.4166,0.0012,9.9515,27.857,29.4,1
6094344,-0.183,-0.366,0.305,0.4070,0.0078,9.9365,27.848,29.4,1
6104344,-0.183,-0.366,0.305,0.4124,0.0144,9.9653,27.828,29.4,1
6114349,-0.122,-0.427,0.366,0.4046,0.0180,9.9748,27.828,29.4,1
6124353,-0.122,-0.366,0.244,0.4034,0.0132,9.9551,27.820,29.4,1
6134365,-0.244,-0.366,0.244,0.4058,0.0192,9.9689,27.834,29.4,1
6144366,-0.244,-0.366,0.244,0.3998,0.0144,9.9353,27.803,29.4,1
6154380,-0.183,-0.427,0.244,0.4034,-0.0012,9.9479,27.840,29.4,1
6164381,-0.183,-0.366,0.244,0.4040,0.0000,9.9515,27.869,29.4,1
6174390,-0.244,-0.305,0.244,0.4166,0.0299,9.9533,27.820,29.4,1
6184395,-0.122,-0.366,0.183,0.4250,0.0174,9.9802,27.826,29.4,1
6194407,-0.183,-0.305,0.305,0.3879,0.0048,9.9617,27.869,29.4,1
6204411,-0.122,-0.305,0.244,0.4004,0.0150,9.9347,27.852,29.4,1
6214414,-0.244,-0.244,0.183,0.4046,0.0174,9.9635,27.826,29.4,1
6224422,-0.122,-0.305,0.244,0.4106,0.0227,9.9766,27.844,29.4,1
6234426,-0.183,-0.366,0.305,0.4184,0.0048,9.9563,27.873,29.4,1
6244437,-0.183,-0.366,0.305,0.4034,-0.0024,9.9593,27.857,29.4,1
6254437,-0.183,-0.427,0.305,0.3903,0.0227,9.9593,27.869,29.4,1
6264441,-0.305,-0.366,0.244,0.4004,0.0186,9.9719,27.828,29.4,1
6274445,-0.183,-0.305,0.244,0.4076,0.0084,9.9790,27.875,29.4,1
6284456,-0.183,-0.427,0.305,0.4022,0.0186,9.9473,27.844,29.4,1
6294460,-0.305,-0.366,0.305,0.4076,0.0162,9.9575,27.863,29.4,1
6304471,-0.305,-0.305,0.305,0.4070,-0.0114,9.9754,27.863,29.4,1
6314475,-0.183,-0.305,0.183,0.4154,0.0186,9.9605,27.805,29.4,1
6324489,-0.183,-0.305,0.244,0.4082,0.0048,9.9539,27.818,29.4,1
6334489,-0.183,-0.366,0.305,0.3986,0.0084,9.9623,27.818,29.4,1
6344501,-0.244,-0.427,0.244,0.4070,-0.0048,9.9605,27.811,29.4,1
6354504,-0.244,-0.305,0.183,0.3909,0.0257,9.9557,27.842,29.4,1
6364504,-0.061,-0.305,0.183,0.4046,0.0233,9.9449,27.812,29.4,1
6374515,-0.122,-0.366,0.244,0.3956,0.0251,9.9611,27.881,29.4,1
6384519,-0.244,-0.305,0.244,0.4058,0.0024,9.9509,27.818,29.4,1
6394526,-0.183,-0.244,0.305,0.4112,0.0054,9.9772,27.834,29.4,1
6404532,-0.183,-0.305,0.122,0.4016,0.0221,9.9826,27.828,29.4,1
6414532,-0.183,-0.305,0.244,0.4118,0.0150,9.9689,27.865,29.4,1
6424542,-0.183,-0.427,0.366,0.4202,0.0186,9.9587,27.871,29.4,1
6434547,-0.183,-0.427,0.244,0.4082,0.0215,9.9653,27.844,29.4,1
6444547,-0.183,-0.305,0.244,0.3897,0.0006,9.9719,27.869,29.4,1
6454550,-0.122,-0.366,0.244,0.3956,0.0180,9.9635,27.871,29.4,1
6464562,-0.244,-0.427,0.244,0.4064,0.0132,9.9659,27.852,29.4,1
6474562,-0.183,-0.366,0.305,0.3891,0.0030,9.9647,27.844,29.4,1
6484572,-0.061,-0.366,0.305,0.4016,0.0204,9.9653,27.838,29.4,1
6494578,-0.183,-0.427,0.305,0.3921,0.0114,9.9665,27.826,29.4,1
6504578,-0.183,-0.366,0.305,0.4274,0.0221,9.9754,27.826,29.4,1
6514580,-0.183,-0.366,0.244,0.4028,0.0156,9.9557,27.844,29.4,1
6524584,-0.122,-0.366,0.305,0.3980,0.0162,9.9455,27.867,29.4,1
6534588,-0.183,-0.305,0.244,0.4118,0.0036,9.9760,27.881,29.4,1
6544603,-0.183,-0.366,0.244,0.4202,0.0000,9.9575,27.861,29.4,1
6554614,-0.061,-0.366,0.305,0.4106,0.0018,9.9515,27.834,29.4,1
6564618,-0.183,-0.366,0.366,0.4178,0.0006,9.9934,27.844,29.4,1
6574626,-0.183,-0.305,0.305,0.4184,0.0066,9.9677,27.832,29.4,1
6584638,-0.183,-0.305,0.244,0.4136,0.0096,9.9802,27.865,29.4,1
6594641,-0.183,-0.305,0.244,0.3968,0.0198,9.9754,27.871,29.4,1
6604641,-0.183,-0.366,0.244,0.3956,-0.0030,9.9623,27.859,29.4,1
6614641,-0.122,-0.366,0.305,0.4112,0.0078,9.9707,27.854,29.4,1
6624641,-0.061,-0.366,0.305,0.4160,0.0233,9.9575,27.873,29.4,1
6634654,-0.183,-0.366,0.305,0.4004,0.0108,9.9587,27.861,29.4,1
6644664,-0.122,-0.366,0.305,0.4052,0.0132,9.9449,27.842,29.4,1
6654669,-0.122,-0.366,0.305,0.4028,0.0186,9.9425,27.863,29.4,1
6664675,-0.244,-0.427,0.183,0.4058,0.0084,9.9617,27.865,29.4,1
6674684,-0.183,-0.488,0.305,0.4130,0.0108,9.9551,27.803,29.4,1
6684684,-0.244,-0.366,0.305,0.4148,0.0036,9.9611,27.854,29.4,1
6694687,-0.244,-0.366,0.244,0.4028,0.0114,9.9653,27.875,29.4,1
6704690,-0.183,-0.305,0.305,0.4070,0.0168,9.9611,27.875,29.4,1
6714694,-0.183,-0.488,0.305,0.4106,0.0299,9.9653,27.840,29.4,1
6724699,-0.122,-0.366,0.305,0.4076,0.0114,9.9695,27.822,29.4,1
6734700,-0.183,-0.305,0.305,0.4022,0.0287,9.9617,27.857,29.4,1
6744702,-0.183,-0.305,0.305,0.4022,-0.0054,9.9371,27.818,29.4,1
6754705,-0.183,-0.427,0.244,0.3974,0.0018,9.9437,27.873,29.4,1
6764706,-0.244,-0.366,0.244,0.3903,0.0180,9.9575,27.850,29.4,1
6774721,-0.244,-0.244,0.244,0.4142,0.0209,9.9778,27.828,29.4,1
6784730,-0.122,-0.366,0.305,0.4004,-0.0066,9.9778,27.850,29.4,1
6794735,-0.061,-0.427,0.305,0.4124,0.0096,9.9509,27.861,29.4,1
6804740,-0.183,-0.305,0.305,0.4280,0.0287,9.9425,27.830,29.4,1
6814748,-0.061,-0.305,0.244,0.4166,0.0144,9.9539,27.846,29.4,1
6824754,-0.122,-0.366,0.244,0.3986,0.0209,9.9563,27.848,29.4,1
6834755,-0.244,-0.366,0.244,0.3962,0.0048,9.9701,27.850,29.4,1
6844761,-0.183,-0.366,0.183,0.4010,-0.0066,9.9629,27.869,29.4,1
6854763,-0.183,-0.366,0.183,0.4082,0.0251,9.9503,27.855,29.4,1
6864766,-0.244,-0.305,0.305,0.4160,0.0239,9.9461,27.828,29.4,1
6874773,-0.244,-0.244,0.305,0.4082,-0.0048,9.9545,27.875,29.4,1
6884776,-0.122,-0.244,0.183,0.4136,0.0215,9.9713,27.865,29.4,1
6894778,-0.122,-0.305,0.183,0.4028,0.0198,9.9707,27.865,29.4,1
6904778,-0.183,-0.366,0.305,0.4004,0.0174,9.9587,27.844,29.4,1
6914782,-0.183,-0.305,0.244,0.4022,0.0323,9.9581,27.908,29.4,1
6924785,-0.183,-0.244,0.244,0.4046,0.0215,9.9766,27.869,29.4,1
6934789,-0.061,-0.305,0.305,0.4214,0.0198,9.9677,27.812,29.4,1
6944793,-0.244,-0.366,0.244,0.4148,0.0102,9.9563,27.857,29.4,1
6954793,-0.244,-0.305,0.244,0.4106,0.0192,9.9665,27.869,29.4,1
6964806,-0.183,-0.244,0.183,0.4136,0.0311,9.9557,27.842,29.4,1
6974808,-0.122,-0.305,0.244,0.4178,0.0084,9.9659,27.850,29.4,1
6984808,-0.122,-0.305,0.305,0.4208,0.0066,9.9491,27.848,29.4,1
6994821,-0.122,-0.366,0.244,0.4190,0.0138,9.9455,27.879,29.4,1
7004831,-0.183,-0.305,0.305,0.3986,0.0198,9.9443,27.863,29.4,1
7014839,-0.061,-0.305,0.305,0.4058,0.0138,9.9659,27.848,29.4,1
7024852,-0.183,-0.244,0.305,0.4142,-0.0012,9.9629,27.852,29.4,1
7034854,-0.183,-0.305,0.305,0.4130,0.0006,9.9551,27.844,29.4,1
7044867,-0.183,-0.244,0.244,0.4196,0.0114,9.9677,27.811,29.4,1
7054872,-0.122,-0.305,0.305,0.3968,0.0168,9.9683,27.840,29.4,1
7064880,-0.061,-0.305,0.305,0.3938,0.0090,9.9760,27.791,29.4,1
7074882,-0.183,-0.366,0.244,0.4052,0.0108,9.9707,27.871,29.4,1
7084892,-0.244,-0.305,0.244,0.4070,0.0168,9.9707,27.838,29.4,1
7094892,-0.183,-0.366,0.244,0.4022,-0.0018,9.9784,27.838,29.4,1
7104906,-0.122,-0.427,0.183,0.4004,0.0090,9.9856,27.842,29.4,1
7114913,-0.244,-0.244,0.305,0.4202,0.0180,9.9497,27.844,29.4,1
7124918,-0.183,-0.305,0.305,0.4190,0.0204,9.9820,27.812,29.4,1
7134930,-0.305,-0.427,0.244,0.4154,0.0192,9.9730,27.857,29.4,1
7144938,-0.244,-0.366,0.244,0.4034,0.0114,9.9449,27.896,29.4,1
7154938,-0.183,-0.305,0.305,0.4118,0.0024,9.9575,27.855,29.4,1
7164945,-0.183,-0.305,0.366,0.4172,0.0132,9.9653,27.830,29.4,1
7174949,-0.244,-0.366,0.244,0.4058,0.0108,9.9593,27.869,29.4,1
7184949,-0.183,-0.427,0.244,0.4046,0.0132,9.9647,27.840,29.4,1
7194953,-0.183,-0.427,0.305,0.4094,-0.0030,9.9359,27.863,29.4,1
7204964,-0.244,-0.366,0.244,0.4256,-0.0018,9.9491,27.822,29.4,1
7214968,-0.244,-0.366,0.244,0.4106,-0.0066,9.9581,27.852,29.4,1
7224968,-0.183,-0.366,0.244,0.4022,0.0168,9.9886,27.871,29.4,1
7234968,-0.122,-0.427,0.244,0.4124,0.0227,9.9593,27.852,29.4,1
7244981,-0.244,-0.366,0.244,0.4076,0.0186,9.9677,27.830,29.4,1
7254984,-0.244,-0.305,0.244,0.3944,0.0204,9.9647,27.867,29.4,1
7264991,-0.183,-0.244,0.366,0.4046,-0.0048,9.9802,27.834,29.4,1
7275001,-0.244,-0.305,0.244,0.3938,-0.0018,9.9587,27.863,29.4,1
7285009,-0.305,-0.305,0.244,0.4112,0.0317,9.9461,27.863,29.4,1
7295011,-0.122,-0.366,0.305,0.3944,0.0245,9.9563,27.848,29.4,1
7305011,-0.122,-0.427,0.305,0.3974,0.0168,9.9569,27.830,29.4,1
7315022,-0.244,-0.366,0.305,0.4076,0.0180,9.9701,27.863,29.4,1
7325033,-0.244,-0.305,0.366,0.4016,0.0066,9.9677,27.875,29.4,1
7335042,-0.244,-0.244,0.305,0.4058,0.0263,9.9431,27.844,29.4,1
7345042,-0.183,-0.366,0.244,0.4070,-0.0186,9.9647,27.867,29.4,1
7355049,-0.183,-0.305,0.244,0.4028,0.0174,9.9701,27.781,29.4,1
7365061,-0.122,-0.366,0.305,0.4226,0.0449,9.9503,27.844,29.4,1
7375070,-0.122,-0.366,0.244,0.4250,0.0102,9.9533,27.834,29.4,1
7385070,-0.244,-0.244,0.244,0.4082,0.0018,9.9521,27.869,29.4,1
7395072,-0.183,-0.244,0.244,0.4130,0.0120,9.9629,27.840,29.4,1
7405079,-0.183,-0.366,0.183,0.4322,0.0144,9.9719,27.846,29.4,1
7415092,-0.183,-0.427,0.183,0.4124,0.0263,9.9497,27.812,29.4,1
7425103,-0.122,-0.366,0.244,0.4130,0.0215,9.9647,27.844,29.4,1
7435110,-0.244,-0.427,0.244,0.4040,0.0090,9.9742,27.865,29.4,1
7445110,-0.122,-0.305,0.305,0.4088,0.0072,9.9359,27.844,29.4,1
7455115,-0.122,-0.366,0.305,0.4142,0.0066,9.9689,27.871,29.4,1
7465118,-0.122,-0.366,0.183,0.4106,0.0102,9.9880,27.877,29.4,1
7475118,-0.183,-0.305,0.244,0.4022,0.0257,9.9509,27.867,29.4,1
7485131,-0.244,-0.427,0.244,0.4022,0.0299,9.9605,27.867,29.4,1
7495137,-0.122,-0.366,0.244,0.4040,0.0144,9.9599,27.826,29.4,1
7505146,-0.122,-0.366,0.244,0.4046,0.0221,9.9736,27.873,29.4,1
7515152,-0.244,-0.427,0.305,0.3921,0.0227,9.9389,27.850,29.4,1
7525163,-0.183,-0.244,0.183,0.4088,0.0174,9.9491,27.857,29.4,1
7535177,-0.183,-0.366,0.244,0.4034,0.0042,9.9736,27.848,29.4,1
7545186,-0.183,-0.366,0.244,0.3915,0.0180,9.9557,27.865,29.4,1
7555194,-0.183,-0.366,0.244,0.3837,0.0018,9.9467,27.852,29.4,1
7565201,-0.183,-0.366,0.244,0.4172,0.0257,9.9605,27.848,29.4,1
7575212,-0.244,-0.366,0.305,0.4178,0.0054,9.9671,27.865,29.4,1
7585212,-0.183,-0.366,0.305,0.4004,0.0078,9.9545,27.807,29.4,1
7595222,-0.183,-0.305,0.244,0.4124,0.0371,9.9383,27.846,29.4,1
7605224,-0.122,-0.366,0.244,0.4142,0.0335,9.9551,27.861,29.4,1
7615229,-0.244,-0.305,0.244,0.3926,0.0138,9.9569,27.871,29.4,1
7625243,-0.305,-0.305,0.305,0.3962,-0.0042,9.9730,27.861,29.4,1
7635255,-0.244,-0.366,0.244,0.4076,0.0299,9.9599,27.854,29.4,1
7645267,-0.244,-0.427,0.244,0.3873,0.0108,9.9617,27.850,29.4,1
7655277,-0.061,-0.305,0.244,0.4022,0.0048,9.9748,27.844,29.4,1
7665277,-0.183,-0.244,0.305,0.4136,0.0221,9.9545,27.818,29.4,1
7675289,-0.183,-0.366,0.244,0.3986,0.0048,9.9467,27.844,29.4,1
7685289,-0.244,-0.427,0.305,0.4028,0.0126,9.9347,27.844,29.4,1
7695295,-0.244,-0.427,0.305,0.4022,0.0180,9.9533,27.861,29.4,1
7705308,-0.244,-0.244,0.244,0.4172,-0.0054,9.9509,27.834,29.4,1
7715313,-0.305,-0.305,0.244,0.3944,0.0221,9.9569,27.838,29.4,1
7725313,-0.305,-0.427,0.244,0.3950,0.0000,9.9479,27.848,29.4,1
7735323,-0.183,-0.366,0.183,0.4184,0.0215,9.9503,27.844,29.4,1
7745331,-0.183,-0.427,0.244,0.4076,0.0114,9.9461,27.836,29.4,1
7755331,-0.122,-0.366,0.244,0.4142,0.0054,9.9425,27.857,29.4,1
7765338,-0.183,-0.366,0.244,0.3962,0.0102,9.9461,27.844,29.4,1
7775341,-0.183,-0.366,0.305,0.4034,0.0204,9.9778,27.859,29.4,1
7785353,-0.183,-0.366,0.305,0.4178,0.0018,9.9605,27.846,29.4,1
7795353,-0.183,-0.366,0.244,0.3992,0.0042,9.9617,27.869,29.4,1
7805365,-0.183,-0.366,0.244,0.4304,0.0024,9.9766,27.826,29.4,1
7815365,-0.305,-0.427,0.244,0.4136,0.0012,9.9569,27.871,29.4,1
7825380,-0.183,-0.366,0.366,0.4004,0.0263,9.9497,27.879,29.4,1
7835389,-0.183,-0.305,0.305,0.4076,0.0263,9.9365,27.861,29.4,1
7845389,-0.244,-0.366,0.305,0.3903,0.0221,9.9473,27.846,29.4,1
7855399,-0.244,-0.366,0.305,0.4106,0.0168,9.9641,27.854,29.4,1
7865404,-0.122,-0.366,0.305,0.4256,0.0114,9.9754,27.877,29.4,1
7875407,-0.183,-0.427,0.366,0.4028,-0.0060,9.9551,27.877,29.4,1
7885411,-0.183,-0.305,0.305,0.3986,0.0084,9.9557,27.865,29.4,1
7895411,-0.183,-0.305,0.305,0.4112,0.0186,9.9509,27.838,29.4,1
7905422,-0.244,-0.366,0.305,0.4112,-0.0012,9.9599,27.883,29.4,1
7915433,-0.244,-0.366,0.366,0.4088,-0.0018,9.9730,27.850,29.4,1
7925441,-0.183,-0.305,0.244,0.3879,0.0030,9.9748,27.836,29.4,1
7935453,-0.061,-0.488,0.305,0.3980,0.0048,9.9623,27.820,29.4,1
7945465,-0.183,-0.366,0.305,0.4076,0.0102,9.9317,27.846,29.4,1
7955471,-0.244,-0.366,0.244,0.4004,0.0054,9.9413,27.840,29.4,1
7965471,-0.183,-0.366,0.305,0.4028,0.0305,9.9695,27.824,29.4,1
7975471,-0.122,-0.366,0.244,0.4004,0.0090,9.9790,27.812,29.4,1
7985471,-0.183,-0.366,0.244,0.4010,0.0132,9.9695,27.893,29.4,1
7995471,-0.183,-0.427,0.305,0.3944,0.0138,9.9509,27.857,29.4,1
8005486,-0.122,-0.305,0.305,0.4100,0.0090,9.9449,27.863,29.4,1
8015492,-0.183,-0.305,0.244,0.4064,0.0174,9.9695,27.889,29.4,1
8025504,-0.122,-0.305,0.244,0.4256,0.0168,9.9425,27.793,29.4,1
8035504,-0.183,-0.305,0.305,0.4226,0.0287,9.9551,27.879,29.4,1
8045517,-0.122,-0.366,0.305,0.4118,0.0156,9.9635,27.852,29.4,1
8055519,-0.244,-0.366,0.183,0.4208,0.0090,9.9587,27.854,29.4,1
8065533,-0.183,-0.366,0.244,0.4250,0.0144,9.9910,27.824,29.4,1
8075537,-0.244,-0.366,0.244,0.3944,0.0120,9.9575,27.824,29.4,1
8085538,-0.244,-0.305,0.244,0.4106,0.0215,9.9473,27.842,29.4,1
8095538,-0.244,-0.366,0.244,0.4034,0.0162,9.9874,27.842,29.4,1
8105538,-0.183,-0.366,0.305,0.3974,0.0174,9.9736,27.859,29.4,1
8115550,-0.183,-0.305,0.305,0.3932,0.0269,9.9641,27.844,29.4,1
8125562,-0.183,-0.366,0.305,0.3950,0.0036,9.9587,27.904,29.4,1
8135568,-0.183,-0.366,0.183,0.4034,0.0239,9.9820,27.836,29.4,1
8145580,-0.183,-0.427,0.183,0.4220,-0.0012,9.9647,27.881,29.4,1
8155580,-0.183,-0.366,0.244,0.4268,0.0060,9.9443,27.854,29.4,1
8165587,-0.183,-0.305,0.244,0.4064,0.0126,9.9707,27.857,29.4,1
8175587,-0.305,-0.244,0.305,0.4034,0.0048,9.9467,27.852,29.4,1
8185593,-0.183,-0.366,0.244,0.4034,0.0233,9.9760,27.875,29.4,1
8195599,-0.183,-0.366,0.305,0.4034,0.0138,9.9707,27.877,29.4,1
8205608,-0.244,-0.305,0.244,0.3932,0.0204,9.9713,27.859,29.4,1
8215610,-0.244,-0.366,0.244,0.3903,0.0060,9.9629,27.844,29.4,1
8225623,-0.183,-0.366,0.305,0.4124,0.0012,9.9359,27.875,29.4,1
8235628,-0.122,-0.183,0.305,0.4094,0.0006,9.9401,27.855,29.4,1
8245633,-0.183,-0.305,0.305,0.4142,-0.0018,9.9659,27.828,29.4,1
8255633,-0.183,-0.366,0.366,0.3998,-0.0006,9.9288,27.893,29.4,1
8265637,-0.183,-0.305,0.305,0.4094,-0.0054,9.9659,27.844,29.4,1
8275641,-0.183,-0.366,0.244,0.4214,0.0066,9.9623,27.844,29.4,1
8285644,-0.183,-0.366,0.305,0.4136,0.0066,9.9581,27.855,29.4,1
8295644,-0.122,-0.366,0.366,0.4082,0.0275,9.9581,27.850,29.4,1
8305656,-0.183,-0.366,0.366,0.4088,0.0180,9.9683,27.844,29.4,1
8315669,-0.122,-0.366,0.183,0.3932,0.0144,9.9479,27.873,29.4,1
8325671,-0.183,-0.366,0.244,0.3992,0.0192,9.9491,27.875,29.4,1
8335671,-0.122,-0.305,0.244,0.4070,0.0018,9.9455,27.859,29.4,1
8345675,-0.183,-0.305,0.244,0.4004,0.0138,9.9551,27.887,29.4,1
8355682,-0.122,-0.366,0.183,0.4016,0.0341,9.9635,27.861,29.4,1
8365684,-0.122,-0.366,0.244,0.4100,0.0263,9.9802,27.867,29.4,1
8375690,-0.122,-0.366,0.305,0.4058,0.0138,9.9503,27.867,29.4,1
8385690,-0.183,-0.427,0.366,0.3992,0.0102,9.9635,27.914,29.4,1
8395699,-0.183,-0.305,0.244,0.4112,0.0150,9.9545,27.871,29.4,1
8405699,-0.244,-0.305,0.305,0.4118,0.0114,9.9467,27.875,29.4,1
8415700,-0.122,-0.305,0.305,0.3998,0.0305,9.9641,27.824,29.4,1
8425702,-0.183,-0.366,0.305,0.4058,0.0323,9.9611,27.859,29.4,1
8435705,-0.183,-0.366,0.244,0.3962,0.0150,9.9689,27.863,29.4,1
8445717,-0.183,-0.366,0.183,0.4220,0.0084,9.9539,27.871,29.4,1
8455725,-0.305,-0.427,0.244,0.4262,0.0156,9.9557,27.828,29.4,1
8465730,-0.183,-0.366,0.244,0.3968,0.0000,9.9778,27.828,29.4,1
8475730,-0.183,-0.305,0.366,0.4166,0.0239,9.9724,27.859,29.4,1
8485730,-0.122,-0.366,0.305,0.3926,0.0096,9.9659,27.867,29.4,1
8495732,-0.122,-0.305,0.244,0.3926,0.0180,9.9395,27.836,29.4,1
8505736,-0.122,-0.305,0.244,0.4322,0.0257,9.9593,27.838,29.4,1
8515745,-0.061,-0.366,0.305,0.4112,0.0204,9.9467,27.844,29.4,1
8525747,-0.122,-0.244,0.305,0.4034,0.0198,9.9611,27.826,29.4,1
8535751,-0.244,-0.305,0.183,0.4100,0.0066,9.9659,27.846,29.4,1
8545760,-0.183,-0.305,0.305,0.4112,0.0072,9.9389,27.877,29.4,1
8555763,-0.244,-0.305,0.183,0.4202,0.0251,9.9479,27.838,29.4,1
8565770,-0.244,-0.305,0.183,0.4082,0.0180,9.9599,27.859,29.4,1
8575773,-0.122,-0.305,0.244,0.3956,0.0078,9.9563,27.891,29.4,1
8585778,-0.183,-0.366,0.305,0.4034,0.0126,9.9587,27.861,29.4,1
8595781,-0.305,-0.366,0.305,0.4040,0.0204,9.9545,27.896,29.4,1
8605791,-0.122,-0.366,0.244,0.4034,0.0114,9.9491,27.838,29.4,1
8615791,-0.122,-0.305,0.305,0.4136,0.0132,9.9569,27.859,29.4,1
8625804,-0.183,-0.244,0.244,0.4142,0.0048,9.9653,27.861,29.4,1
8635806,-0.244,-0.305,0.244,0.4082,0.0120,9.9413,27.873,29.4,1
8645811,-0.183,-0.427,0.305,0.4106,0.0180,9.9413,27.875,29.4,1
8655824,-0.122,-0.366,0.244,0.3992,0.0102,9.9623,27.844,29.4,1
8665837,-0.122,-0.366,0.244,0.4220,0.0084,9.9557,27.844,29.4,1
8675839,-0.183,-0.305,0.244,0.4196,0.0078,9.9575,27.873,29.4,1
8685839,-0.122,-0.244,0.244,0.3921,0.0287,9.9647,27.857,29.4,1
8695852,-0.122,-0.366,0.305,0.3962,0.0102,9.9922,27.883,29.4,1
8705857,-0.244,-0.366,0.244,0.3938,0.0144,9.9527,27.883,29.4,1
8715862,-0.183,-0.366,0.244,0.4118,0.0227,9.9581,27.869,29.4,1
8725862,-0.244,-0.366,0.305,0.4124,0.0108,9.9641,27.855,29.4,1
8735867,-0.183,-0.305,0.244,0.4076,0.0078,9.9467,27.832,29.4,1
8745872,-0.183,-0.244,0.305,0.4058,-0.0108,9.9623,27.865,29.4,1
8755884,-0.183,-0.366,0.244,0.4214,0.0126,9.9695,27.824,29.4,1
8765888,-0.244,-0.305,0.183,0.3926,0.0138,9.9754,27.859,29.4,1
8775897,-0.183,-0.305,0.244,0.4010,0.0060,9.9611,27.812,29.4,1
8785907,-0.244,-0.305,0.244,0.4070,0.0120,9.9772,27.846,29.4,1
8795915,-0.183,-0.366,0.183,0.3980,0.0162,9.9659,27.828,29.4,1
8805922,-0.122,-0.244,0.305,0.3974,0.0198,9.9683,27.877,29.4,1
8815930,-0.244,-0.305,0.244,0.4028,0.0102,9.9467,27.855,29.4,1
8825934,-0.183,-0.366,0.183,0.3944,0.0060,9.9611,27.865,29.4,1
8835943,-0.061,-0.366,0.244,0.3915,0.0120,9.9724,27.855,29.4,1
8845949,-0.183,-0.427,0.244,0.4082,0.0221,9.9689,27.865,29.4,1
8855958,-0.183,-0.427,0.244,0.4022,-0.0024,9.9701,27.824,29.4,1
8865961,-0.122,-0.366,0.183,0.4010,0.0221,9.9539,27.824,29.4,1
8875961,-0.122,-0.305,0.366,0.3998,0.0239,9.9491,27.879,29.4,1
8885968,-0.122,-0.305,0.305,0.4010,0.0072,9.9653,27.887,29.4,1
8895968,-0.183,-0.366,0.244,0.4040,0.0030,9.9545,27.859,29.4,1
8905984,-0.244,-0.366,0.244,0.4058,0.0341,9.9880,27.824,29.4,1
8915996,-0.122,-0.427,0.244,0.4088,0.0138,9.9635,27.877,29.4,1
8925996,-0.061,-0.427,0.244,0.4052,0.0012,9.9234,27.850,29.4,1
8935996,-0.244,-0.305,0.366,0.4076,0.0341,9.9647,27.867,29.4,1
8945999,-0.305,-0.305,0.244,0.4154,0.0221,9.9449,27.900,29.4,1
8956003,-0.183,-0.366,0.305,0.4106,0.0221,9.9359,27.844,29.4,1
8966011,-0.122,-0.366,0.244,0.4070,0.0150,9.9665,27.863,29.4,1
8976011,-0.183,-0.366,0.305,0.3938,0.0114,9.9611,27.889,29.4,1
8986011,-0.244,-0.305,0.244,0.3992,0.0138,9.9671,27.875,29.4,1
8996018,-0.183,-0.305,0.305,0.4202,0.0299,9.9539,27.875,29.4,1
9006026,-0.122,-0.366,0.244,0.4130,0.0108,9.9347,27.889,29.4,1
9016030,-0.183,-0.427,0.244,0.3998,0.0006,9.9533,27.836,29.4,1
9026042,-0.122,-0.366,0.244,0.3968,0.0156,9.9641,27.852,29.4,1
9036042,-0.122,-0.366,0.244,0.4058,0.0239,9.9575,27.842,29.4,1
9046046,-0.183,-0.244,0.244,0.3921,0.0084,9.9719,27.850,29.4,1
9056060,-0.122,-0.305,0.244,0.3944,0.0132,9.9862,27.850,29.4,1
9066072,-0.183,-0.366,0.244,0.4046,0.0156,9.9629,27.846,29.4,1
9076085,-0.183,-0.305,0.183,0.4160,0.0138,9.9557,27.859,29.4,1
9086090,-0.183,-0.305,0.244,0.4016,0.0042,9.9575,27.828,29.4,1
9096092,-0.183,-0.366,0.305,0.4190,0.0060,9.9611,27.854,29.4,1
9106103,-0.183,-0.305,0.305,0.3962,0.0072,9.9563,27.852,29.4,1
9116106,-0.122,-0.427,0.305,0.4058,0.0150,9.9599,27.871,29.4,1
9126106,-0.122,-0.366,0.244,0.4088,0.0000,9.9629,27.850,29.4,1
9136106,-0.122,-0.305,0.305,0.3968,0.0162,9.9635,27.852,29.4,1
9146106,-0.122,-0.366,0.305,0.4022,0.0048,9.9485,27.875,29.4,1
9156118,-0.305,-0.427,0.244,0.3998,0.0096,9.9677,27.844,29.4,1
9166125,-0.305,-0.366,0.183,0.3926,0.0156,9.9503,27.846,29.4,1
9176133,-0.183,-0.366,0.244,0.3867,0.0048,9.9617,27.887,29.4,1
9186137,-0.183,-0.305,0.305,0.4172,0.0126,9.9485,27.828,29.4,1
9196148,-0.183,-0.305,0.305,0.4244,0.0323,9.9605,27.891,29.4,1
9206155,-0.183,-0.366,0.244,0.4178,0.0114,9.9359,27.867,29.4,1
9216166,-0.122,-0.427,0.244,0.4172,0.0048,9.9545,27.838,29.4,1
9226171,-0.122,-0.427,0.305,0.3986,0.0269,9.9778,27.920,29.4,1
9236179,-0.183,-0.366,0.244,0.4034,0.0102,9.9491,27.846,29.4,1
9246179,-0.122,-0.366,0.244,0.4100,0.0138,9.9473,27.861,29.4,1
9256179,-0.122,-0.244,0.244,0.4154,0.0281,9.9701,27.861,29.4,1
9266181,-0.122,-0.244,0.305,0.4010,0.0192,9.9754,27.844,29.4,1
9276196,-0.183,-0.366,0.305,0.3915,-0.0018,9.9503,27.844,29.4,1
9286197,-0.183,-0.366,0.305,0.3956,0.0215,9.9557,27.842,29.4,1
9296207,-0.183,-0.305,0.244,0.3950,0.0096,9.9605,27.814,29.4,1
9306216,-0.244,-0.366,0.244,0.4148,0.0180,9.9455,27.828,29.4,1
9316224,-0.122,-0.305,0.244,0.4004,0.0042,9.9677,27.854,29.4,1
9326228,-0.122,-0.305,0.244,0.4004,0.0102,9.9946,27.867,29.4,1
9336231,-0.183,-0.244,0.305,0.3944,0.0162,9.9641,27.869,29.4,1
9346237,-0.122,-0.305,0.305,0.3926,0.0096,9.9707,27.850,29.4,1
9356238,-0.122,-0.305,0.305,0.4076,0.0156,9.9683,27.891,29.4,1
9366243,-0.183,-0.366,0.244,0.4154,0.0066,9.9539,27.881,29.4,1
9376243,-0.122,-0.366,0.305,0.4220,0.0138,9.9677,27.857,29.4,1
9386247,-0.183,-0.366,0.305,0.4112,0.0269,9.9766,27.852,29.4,1
9396252,-0.244,-0.427,0.305,0.4226,0.0144,9.9527,27.873,29.4,1
9406255,-0.122,-0.305,0.183,0.3950,0.0060,9.9653,27.871,29.4,1
9416255,-0.183,-0.366,0.244,0.4076,0.0257,9.9671,27.844,29.4,1
9426268,-0.244,-0.427,0.305,0.4004,0.0209,9.9707,27.871,29.4,1
9436268,-0.183,-0.305,0.305,0.3980,0.0227,9.9545,27.898,29.4,1
9446268,-0.244,-0.244,0.305,0.3909,0.0114,9.9784,27.898,29.4,1
9456270,-0.183,-0.305,0.183,0.4136,0.0072,9.9665,27.844,29.4,1
9466270,-0.183,-0.244,0.244,0.3986,0.0012,9.9581,27.881,29.4,1
9476274,-0.183,-0.427,0.244,0.3992,0.0180,9.9641,27.875,29.4,1
9486285,-0.244,-0.366,0.183,0.4232,0.0204,9.9796,27.873,29.4,1
9496285,-0.183,-0.305,0.305,0.4166,0.0066,9.9623,27.861,29.4,1
9506285,-0.244,-0.305,0.244,0.4280,0.0299,9.9659,27.859,29.4,1
9516299,-0.183,-0.305,0.244,0.4034,0.0239,9.9497,27.871,29.4,1
9526308,-0.183,-0.427,0.183,0.4046,0.0227,9.9581,27.881,29.4,1
9536308,-0.122,-0.366,0.183,0.4316,0.0198,9.9754,27.908,29.4,1
9546319,-0.183,-0.244,0.244,0.4094,0.0233,9.9713,27.832,29.4,1
9556331,-0.122,-0.366,0.305,0.4076,0.0162,9.9605,27.846,29.4,1
9566338,-0.183,-0.427,0.366,0.3962,0.0126,9.9587,27.873,29.4,1
9576350,-0.244,-0.305,0.305,0.3962,0.0114,9.9521,27.842,29.4,1
9586359,-0.183,-0.427,0.244,0.3998,0.0215,9.9611,27.848,29.4,1
9596364,-0.122,-0.366,0.305,0.4004,0.0114,9.9593,27.883,29.4,1
9606364,-0.244,-0.366,0.244,0.4082,0.0144,9.9503,27.883,29.4,1
9616377,-0.183,-0.305,0.183,0.4070,0.0192,9.9473,27.861,29.4,1
9626380,-0.183,-0.366,0.244,0.4016,0.0168,9.9545,27.844,29.4,1
9636380,-0.244,-0.366,0.244,0.3950,0.0132,9.9551,27.875,29.4,1
9646380,-0.244,-0.366,0.244,0.3921,0.0066,9.9695,27.875,29.4,1
9656392,-0.183,-0.305,0.244,0.3998,-0.0042,9.9647,27.930,29.4,1
9666405,-0.183,-0.244,0.305,0.3932,-0.0006,9.9623,27.885,29.4,1
9676407,-0.244,-0.244,0.244,0.4016,-0.0006,9.9611,27.885,29.4,1
9686410,-0.183,-0.305,0.183,0.4082,-0.0012,9.9719,27.828,29.4,1
9696422,-0.122,-0.244,0.305,0.3986,-0.0048,9.9551,27.879,29.4,1
9706432,-0.244,-0.305,0.305,0.4088,0.0281,9.9407,27.826,29.4,1
9716437,-0.122,-0.366,0.305,0.3909,0.0180,9.9611,27.859,29.4,1
9726437,-0.244,-0.244,0.244,0.3903,0.0138,9.9647,27.875,29.4,1
9736437,-0.183,-0.366,0.305,0.4184,0.0204,9.9503,27.859,29.4,1
9746441,-0.244,-0.366,0.305,0.4184,0.0114,9.9838,27.871,29.4,1
9756441,-0.183,-0.366,0.244,0.4160,0.0108,9.9880,27.875,29.4,1
9766453,-0.183,-0.244,0.305,0.4280,0.0132,9.9653,27.898,29.4,1
9776465,-0.244,-0.305,0.244,0.4082,0.0072,9.9593,27.867,29.4,1
9786468,-0.183,-0.305,0.244,0.3813,0.0180,9.9563,27.857,29.4,1
9796471,-0.122,-0.305,0.305,0.4040,0.0221,9.9772,27.838,29.4,1
9806486,-0.183,-0.366,0.305,0.3992,0.0150,9.9599,27.873,29.4,1
9816489,-0.183,-0.305,0.244,0.3986,0.0078,9.9665,27.861,29.4,1
9826489,-0.183,-0.427,0.305,0.3956,0.0174,9.9587,27.840,29.4,1
9836492,-0.183,-0.305,0.244,0.4016,0.0186,9.9641,27.830,29.4,1
9846492,-0.183,-0.366,0.244,0.3992,0.0239,9.9587,27.830,29.4,1
9856496,-0.244,-0.427,0.305,0.4070,0.0269,9.9671,27.852,29.4,1
9866496,-0.183,-0.366,0.244,0.4052,0.0209,9.9784,27.836,29.4,1
9876501,-0.122,-0.305,0.244,0.4040,0.0174,9.9407,27.846,29.4,1
9886504,-0.183,-0.305,0.244,0.4052,0.0293,9.9605,27.846,29.4,1
9896504,-0.183,-0.305,0.244,0.3903,0.0192,9.9695,27.889,29.4,1
9906517,-0.122,-0.305,0.244,0.3873,0.0096,9.9575,27.836,29.4,1
9916522,-0.122,-0.305,0.305,0.4106,0.0174,9.9479,27.803,29.4,1
9926534,-0.061,-0.305,0.366,0.4028,0.0132,9.9677,27.828,29.4,1
9936534,-0.122,-0.366,0.305,0.3944,-0.0060,9.9940,27.873,29.4,1
9946542,-0.122,-0.366,0.244,0.4046,0.0006,9.9748,27.846,29.4,1
9956547,-0.183,-0.366,0.244,0.4136,0.0132,9.9629,27.850,29.4,1
9966553,-0.244,-0.305,0.244,0.4166,0.0072,9.9778,27.883,29.4,1
9976562,-0.183,-0.244,0.305,0.4136,0.0126,9.9647,27.887,29.4,1
9986565,-0.183,-0.305,0.305,0.3926,0.0239,9.9371,27.816,29.4,1
9996572,-0.183,-0.305,0.122,0.4052,0.0227,9.9515,27.814,29.4,1
10006578,-0.122,-0.305,0.244,0.3998,0.0204,9.9689,27.852,29.4,1
10016588,-0.244,-0.427,0.244,0.3921,0.0042,9.9742,27.789,29.4,1
10026588,-0.305,-0.366,0.244,0.4058,0.0138,9.9497,27.867,29.4,1
10036588,-0.244,-0.305,0.305,0.4016,0.0168,9.9395,27.867,29.4,1
10046593,-0.122,-0.366,0.305,0.3998,0.0174,9.9569,27.818,29.4,1
10056598,-0.244,-0.366,0.244,0.4136,0.0108,9.9575,27.875,29.4,1
10066608,-0.244,-0.427,0.122,0.4004,-0.0042,9.9748,27.912,29.4,1
10076618,-0.244,-0.366,0.183,0.4010,-0.0054,9.9443,27.828,29.4,1
10086629,-0.183,-0.305,0.244,0.4034,0.0108,9.9533,27.846,29.4,1
10096633,-0.244,-0.305,0.244,0.3915,-0.0006,9.9796,27.854,29.4,1
10106639,-0.183,-0.305,0.183,0.4076,0.0156,9.9964,27.875,29.4,1
10116639,-0.122,-0.366,0.244,0.4064,0.0233,9.9605,27.875,29.4,1
10126639,-0.122,-0.366,0.244,0.4076,0.0215,9.9581,27.840,29.4,1
10136641,-0.122,-0.366,0.244,0.4130,0.0048,9.9802,27.881,29.4,1
10146646,-0.183,-0.427,0.183,0.4136,0.0120,9.9491,27.807,29.4,1
10156660,-0.244,-0.366,0.305,0.4016,0.0287,9.9353,27.855,29.4,1
10166660,-0.183,-0.305,0.305,0.3903,0.0114,9.9575,27.875,29.4,1
10176664,-0.122,-0.366,0.244,0.4124,0.0126,9.9719,27.889,29.4,1
10186671,-0.244,-0.305,0.244,0.4316,0.0281,9.9503,27.857,29.4,1
10196674,-0.244,-0.366,0.244,0.4028,0.0174,9.9509,27.893,29.4,1
10206685,-0.122,-0.305,0.305,0.3986,0.0150,9.9629,27.881,29.4,1
10216690,-0.183,-0.305,0.305,0.3873,-0.0054,9.9772,27.873,29.4,1
10226699,-0.305,-0.366,0.244,0.3962,0.0090,9.9701,27.850,29.4,1
10236702,-0.305,-0.366,0.305,0.4070,0.0281,9.9491,27.850,29.4,1
10246702,-0.122,-0.366,0.305,0.3998,0.0209,9.9545,27.879,29.4,1
10256715,-0.183,-0.305,0.305,0.3992,0.0168,9.9545,27.859,29.4,1
10266725,-0.183,-0.305,0.183,0.4106,0.0209,9.9533,27.908,29.4,1
10276735,-0.122,-0.366,0.183,0.3998,0.0215,9.9683,27.865,29.4,1
10286747,-0.305,-0.366,0.244,0.4052,0.0114,9.9461,27.846,29.4,1
10296761,-0.183,-0.305,0.244,0.3921,0.0078,9.9425,27.867,29.4,1
10306766,-0.183,-0.305,0.244,0.3992,0.0221,9.9677,27.852,29.4,1
10316766,-0.122,-0.427,0.183,0.4106,0.0168,9.9647,27.879,29.4,1
10326770,-0.122,-0.305,0.183,0.4202,0.0102,9.9641,27.850,29.4,1
10336781,-0.183,-0.366,0.244,0.4178,0.0018,9.9748,27.898,29.4,1
10346781,-0.183,-0.244,0.244,0.4202,0.0150,9.9527,27.834,29.4,1
10356791,-0.122,-0.305,0.244,0.3765,0.0180,9.9359,27.852,29.4,1
10366801,-0.122,-0.366,0.244,0.3986,0.0245,9.9449,27.852,29.4,1
10376812,-0.061,-0.427,0.244,0.4052,0.0233,9.9479,27.869,29.4,1
10386822,-0.183,-0.427,0.244,0.4094,0.0102,9.9551,27.814,29.4,1
10396836,-0.183,-0.305,0.244,0.3885,0.0132,9.9407,27.881,29.4,1
10406842,-0.061,-0.305,0.183,0.3932,0.0030,9.9629,27.840,29.4,1
10416843,-0.061,-0.366,0.244,0.4190,0.0066,9.9455,27.893,29.4,1
10426857,-0.183,-0.305,0.244,0.4058,0.0341,9.9605,27.852,29.4,1
10436868,-0.244,-0.366,0.244,0.4124,0.0138,9.9599,27.852,29.4,1
10446882,-0.244,-0.366,0.305,0.4070,0.0090,9.9371,27.846,29.4,1
10456884,-0.183,-0.305,0.366,0.4058,0.0156,9.9575,27.859,29.4,1
10466889,-0.183,-0.366,0.305,0.4040,0.0239,9.9539,27.850,29.4,1
10476900,-0.122,-0.366,0.244,0.4052,0.0138,9.9563,27.891,29.4,1
10486900,-0.122,-0.305,0.305,0.3921,-0.0042,9.9707,27.844,29.4,1
10496913,-0.183,-0.366,0.305,0.4004,0.0066,9.9593,27.869,29.4,1
10506915,-0.183,-0.305,0.305,0.4094,0.0114,9.9401,27.863,29.4,1
10516915,-0.183,-0.305,0.244,0.4112,0.0221,9.9641,27.891,29.4,1
10526922,-0.183,-0.366,0.244,0.4058,-0.0054,9.9485,27.869,29.4,1
10536930,-0.183,-0.305,0.305,0.3932,0.0162,9.9473,27.852,29.4,1
10546930,-0.183,-0.366,0.244,0.4028,0.0245,9.9389,27.867,29.4,1
10556933,-0.122,-0.366,0.244,0.3974,0.0018,9.9551,27.904,29.4,1
10566934,-0.122,-0.366,0.366,0.4004,0.0305,9.9491,27.840,29.4,1
10576943,-0.183,-0.366,0.305,0.4148,0.0198,9.9569,27.852,29.4,1
10586945,-0.244,-0.366,0.305,0.3998,0.0257,9.9707,27.832,29.4,1
10596958,-0.244,-0.366,0.305,0.4106,0.0198,9.9485,27.855,29.4,1
10606965,-0.183,-0.366,0.244,0.4004,0.0281,9.9575,27.861,29.4,1
10616984,-0.122,-0.366,0.305,0.3849,0.0066,9.9790,27.844,29.4,1
10626996,-0.122,-0.305,0.244,0.4184,0.0209,9.9665,27.844,29.4,1
10636999,-0.244,-0.305,0.305,0.4100,0.0018,9.9443,27.852,29.4,1
10647009,-0.244,-0.244,0.244,0.4052,0.0018,9.9509,27.816,29.4,1
10657009,-0.122,-0.305,0.183,0.3801,0.0126,9.9671,27.852,29.4,1
10667018,-0.183,-0.366,0.244,0.3980,0.0221,9.9874,27.830,29.4,1
10677031,-0.183,-0.244,0.244,0.3992,0.0072,9.9557,27.844,29.4,1
10687031,-0.183,-0.366,0.305,0.3980,0.0168,9.9653,27.869,29.4,1
10697042,-0.183,-0.305,0.244,0.4076,-0.0078,9.9695,27.855,29.4,1
10707049,-0.122,-0.305,0.244,0.4262,0.0012,9.9719,27.896,29.4,1
10717054,-0.183,-0.305,0.244,0.4040,0.0084,9.9551,27.914,29.4,1
10727063,-0.183,-0.366,0.305,0.4070,0.0000,9.9461,27.830,29.4,1
10737075,-0.183,-0.427,0.244,0.4028,0.0030,9.9473,27.875,29.4,1
10747087,-0.122,-0.427,0.244,0.4124,0.0042,9.9605,27.836,29.4,1
10757094,-0.244,-0.305,0.305,0.3885,-0.0108,9.9653,27.863,29.4,1
10767107,-0.183,-0.305,0.244,0.4178,-0.0030,9.9605,27.869,29.4,1
10777118,-0.122,-0.305,0.183,0.4106,0.0084,9.9629,27.854,29.4,1
10787121,-0.183,-0.427,0.244,0.4100,-0.0042,9.9724,27.877,29.4,1
10797133,-0.183,-0.366,0.183,0.4100,0.0132,9.9790,27.877,29.4,1
10807146,-0.183,-0.366,0.244,0.4010,-0.0150,9.9713,27.861,29.4,1
10817152,-0.122,-0.305,0.244,0.3968,0.0132,9.9527,27.852,29.4,1
10827155,-0.122,-0.366,0.305,0.4088,0.0198,9.9413,27.852,29.4,1
10837161,-0.244,-0.305,0.305,0.4124,0.0150,9.9611,27.893,29.4,1
10847171,-0.183,-0.244,0.244,0.3974,0.0132,9.9653,27.854,29.4,1
10857176,-0.122,-0.366,0.244,0.3962,0.0084,9.9557,27.832,29.4,1
10867182,-0.183,-0.366,0.244,0.3968,0.0072,9.9748,27.857,29.4,1
10877191,-0.183,-0.305,0.244,0.4070,0.0090,9.9641,27.883,29.4,1
10887201,-0.183,-0.305,0.244,0.3932,0.0257,9.9473,27.850,29.4,1
10897209,-0.183,-0.244,0.244,0.4094,-0.0048,9.9473,27.850,29.4,1
10907222,-0.183,-0.366,0.305,0.4082,0.0060,9.9748,27.846,29.4,1
10917224,-0.183,-0.366,0.244,0.3944,0.0144,9.9551,27.900,29.4,1
10927228,-0.244,-0.366,0.244,0.3897,0.0012,9.9527,27.887,29.4,1
10937240,-0.183,-0.366,0.244,0.4064,0.0138,9.9527,27.877,29.4,1
10947243,-0.061,-0.427,0.244,0.4004,0.0150,9.9611,27.861,29.4,1
10957247,-0.183,-0.427,0.183,0.4160,0.0150,9.9826,27.879,29.4,1
10967247,-0.183,-0.366,0.305,0.3998,0.0108,9.9467,27.873,29.4,1
10977247,-0.122,-0.244,0.305,0.4004,0.0192,9.9569,27.805,29.4,1
10987250,-0.183,-0.183,0.305,0.4106,0.0072,9.9742,27.875,29.4,1
10997262,-0.061,-0.305,0.305,0.3992,0.0138,9.9617,27.820,29.4,1
11007270,-0.183,-0.305,0.305,0.4082,0.0204,9.9623,27.875,29.4,1
11017283,-0.183,-0.244,0.305,0.3950,0.0084,9.9575,27.832,29.4,1
11027285,-0.122,-0.427,0.244,0.3980,-0.0186,9.9724,27.832,29.4,1
11037285,-0.061,-0.366,0.244,0.4076,0.0018,9.9736,27.838,29.4,1
11047285,-0.122,-0.305,0.366,0.4046,0.0048,9.9605,27.855,29.4,1
11057299,-0.244,-0.366,0.305,0.3974,0.0245,9.9641,27.916,29.4,1
11067313,-0.183,-0.366,0.244,0.3932,0.0245,9.9796,27.867,29.4,1
11077313,-0.183,-0.305,0.244,0.4100,0.0126,9.9581,27.838,29.4,1
11087313,-0.122,-0.366,0.305,0.4136,0.0138,9.9623,27.857,29.4,1
11097323,-0.183,-0.305,0.244,0.4028,0.0257,9.9814,27.871,29.4,1
11107323,-0.183,-0.305,0.183,0.3968,0.0192,9.9425,27.801,29.4,1
11117335,-0.183,-0.305,0.244,0.3992,-0.0048,9.9569,27.865,29.4,1
11127348,-0.244,-0.305,0.305,0.4046,0.0030,9.9623,27.887,29.4,1
11137349,-0.183,-0.244,0.244,0.3968,0.0168,9.9605,27.854,29.4,1
11147350,-0.122,-0.366,0.244,0.4244,0.0114,9.9671,27.871,29.4,1
11157361,-0.183,-0.366,0.305,0.4286,0.0120,9.9838,27.893,29.4,1
11167361,-0.122,-0.305,0.305,0.4028,0.0221,9.9521,27.842,29.4,1
11177368,-0.183,-0.305,0.244,0.3879,0.0359,9.9575,27.863,29.4,1
11187377,-0.183,-0.366,0.305,0.3980,0.0209,9.9790,27.838,29.4,1
11197390,-0.122,-0.366,0.244,0.3915,0.0299,9.9617,27.879,29.4,1
11207405,-0.244,-0.305,0.244,0.4028,0.0221,9.9629,27.822,29.4,1
11217414,-0.305,-0.244,0.244,0.4160,0.0012,9.9802,27.822,29.4,1
11227414,-0.183,-0.305,0.183,0.4088,0.0263,9.9617,27.865,29.4,1
11237422,-0.183,-0.366,0.244,0.3974,0.0120,9.9754,27.873,29.4,1
11247422,-0.183,-0.366,0.244,0.4178,0.0150,9.9611,27.857,29.4,1
11257435,-0.183,-0.366,0.244,0.4118,0.0347,9.9736,27.826,29.4,1
11267436,-0.183,-0.305,0.305,0.4010,0.0239,9.9671,27.855,29.4,1
11277440,-0.061,-0.244,0.244,0.3921,0.0132,9.9575,27.893,29.4,1
11287450,-0.183,-0.366,0.366,0.3938,0.0078,9.9593,27.875,29.4,1
11297450,-0.183,-0.305,0.305,0.3962,0.0299,9.9491,27.842,29.4,1
11307456,-0.122,-0.244,0.244,0.3992,0.0287,9.9730,27.855,29.4,1
11317460,-0.183,-0.244,0.244,0.3986,0.0245,9.9485,27.844,29.4,1
11327465,-0.244,-0.366,0.244,0.4124,0.0204,9.9605,27.875,29.4,1
11337468,-0.183,-0.244,0.305,0.4172,0.0132,9.9695,27.877,29.4,1
11347484,-0.122,-0.366,0.244,0.3885,0.0162,9.9467,27.852,29.4,1
11357492,-0.244,-0.427,0.244,0.4154,0.0257,9.9611,27.881,29.4,1
11367500,-0.122,-0.366,0.366,0.3938,-0.0030,9.9563,27.902,29.4,1
11377501,-0.183,-0.366,0.183,0.4022,0.0060,9.9569,27.871,29.4,1
11387507,-0.183,-0.244,0.183,0.3915,0.0114,9.9563,27.879,29.4,1
11397517,-0.244,-0.305,0.366,0.4082,-0.0036,9.9491,27.857,29.4,1
11407517,-0.244,-0.366,0.244,0.4172,0.0192,9.9581,27.834,29.4,1
11417519,-0.183,-0.305,0.244,0.3813,0.0239,9.9575,27.834,29.4,1
11427530,-0.061,-0.366,0.244,0.4226,0.0162,9.9617,27.844,29.4,1
11437532,-0.122,-0.305,0.244,0.4220,0.0251,9.9856,27.879,29.4,1
11447532,-0.183,-0.366,0.244,0.4010,0.0275,9.9671,27.865,29.4,1
11457532,-0.183,-0.305,0.366,0.4058,0.0120,9.9641,27.846,29.4,1
11467545,-0.183,-0.305,0.305,0.3926,0.0096,9.9826,27.863,29.4,1
11477557,-0.244,-0.366,0.183,0.4106,0.0359,9.9623,27.830,29.4,1
11487565,-0.122,-0.305,0.305,0.4160,0.0311,9.9748,27.904,29.4,1
11497565,-0.183,-0.305,0.305,0.3789,0.0168,9.9455,27.826,29.4,1
11507578,-0.183,-0.366,0.244,0.4016,0.0221,9.9557,27.873,29.4,1
11517578,-0.122,-0.488,0.244,0.4010,0.0192,9.9647,27.844,29.4,1
11527578,-0.061,-0.427,0.305,0.4112,0.0150,9.9736,27.893,29.4,1
11537588,-0.183,-0.244,0.366,0.4184,0.0054,9.9587,27.863,29.4,1
11547588,-0.122,-0.366,0.366,0.4208,0.0233,9.9707,27.883,29.4,1
11557595,-0.183,-0.488,0.183,0.4130,0.0126,9.9485,27.869,29.4,1
11567598,-0.183,-0.305,0.244,0.4142,0.0090,9.9778,27.865,29.4,1
11577603,-0.244,-0.305,0.183,0.4088,0.0060,9.9748,27.875,29.4,1
11587610,-0.122,-0.366,0.305,0.4082,0.0132,9.9455,27.850,29.4,1
11597610,-0.122,-0.305,0.244,0.4076,0.0251,9.9736,27.863,29.4,1
11607623,-0.183,-0.305,0.305,0.4028,0.0221,9.9605,27.863,29.4,1
11617624,-0.244,-0.366,0.244,0.3932,0.0048,9.9593,27.848,29.4,1
11627629,-0.183,-0.366,0.305,0.3950,0.0221,9.9467,27.844,29.4,1
11637643,-0.122,-0.305,0.305,0.4166,0.0204,9.9593,27.844,29.4,1
11647656,-0.244,-0.244,0.305,0.4004,0.0245,9.9778,27.844,29.4,1
11657660,-0.183,-0.366,0.244,0.4004,0.0114,9.9772,27.844,29.4,1
11667660,-0.183,-0.427,0.183,0.4076,0.0180,9.9862,27.895,29.4,1
11677664,-0.122,-0.427,0.244,0.4166,0.0132,9.9736,27.857,29.4,1
11687675,-0.122,-0.305,0.305,0.4016,0.0096,9.9641,27.869,29.4,1
11697678,-0.183,-0.366,0.244,0.4046,0.0269,9.9527,27.893,29.4,1
11707690,-0.244,-0.305,0.305,0.4124,0.0000,9.9713,27.857,29.4,1
11717702,-0.183,-0.305,0.244,0.4184,0.0371,9.9635,27.854,29.4,1
11727715,-0.122,-0.244,0.244,0.4106,0.0293,9.9521,27.844,29.4,1
11737725,-0.183,-0.305,0.244,0.3873,0.0293,9.9659,27.887,29.4,1
11747736,-0.183,-0.366,0.244,0.3903,0.0132,9.9802,27.867,29.4,1
11757736,-0.183,-0.305,0.244,0.4154,0.0150,9.9575,27.855,29.4,1
11767747,-0.122,-0.305,0.305,0.4052,0.0257,9.9719,27.908,29.4,1
11777761,-0.183,-0.427,0.244,0.4022,0.0186,9.9671,27.842,29.4,1
11787763,-0.183,-0.366,0.244,0.3956,0.0239,9.9623,27.871,29.4,1
11797763,-0.183,-0.305,0.305,0.4034,0.0132,9.9611,27.889,29.4,1
11807763,-0.183,-0.366,0.305,0.4172,0.0120,9.9784,27.889,29.4,1
11817763,-0.183,-0.366,0.305,0.4154,0.0036,9.9623,27.844,29.4,1
11827766,-0.183,-0.244,0.305,0.4088,0.0204,9.9754,27.904,29.4,1
11837770,-0.183,-0.366,0.244,0.4076,0.0114,9.9485,27.844,29.4,1
11847770,-0.244,-0.305,0.305,0.3980,-0.0078,9.9569,27.865,29.4,1
11857781,-0.183,-0.366,0.305,0.3783,-0.0006,9.9707,27.844,30.4,1
11867791,-0.244,-0.366,0.244,0.3968,-0.0030,9.9724,27.838,29.4,1
11877801,-0.122,-0.244,0.183,0.4154,0.0150,9.9653,27.883,29.4,1
11887813,-0.122,-0.366,0.305,0.4130,-0.0048,9.9563,27.848,29.4,1
11897824,-0.122,-0.427,0.305,0.4070,0.0245,9.9605,27.848,29.4,1
11907831,-0.183,-0.366,0.305,0.4028,0.0233,9.9569,27.854,29.4,1
11917836,-0.305,-0.305,0.305,0.4040,0.0168,9.9826,27.877,29.4,1
11927842,-0.305,-0.305,0.305,0.4124,0.0096,9.9551,27.916,29.4,1
11937856,-0.122,-0.305,0.244,0.4022,0.0066,9.9575,27.855,29.4,1
11947862,-0.183,-0.305,0.244,0.3938,0.0215,9.9623,27.828,29.4,1
11957869,-0.183,-0.427,0.244,0.3915,0.0138,9.9736,27.848,29.4,1
11967869,-0.244,-0.305,0.244,0.4058,0.0042,9.9754,27.873,29.4,1
11977883,-0.183,-0.305,0.244,0.4010,0.0180,9.9449,27.867,29.4,1
11987884,-0.244,-0.366,0.244,0.4004,0.0227,9.9593,27.852,29.4,1
11997884,-0.366,-0.366,0.244,0.4160,0.0156,9.9701,27.844,29.4,1
12007895,-0.244,-0.366,0.244,0.4040,0.0132,9.9844,27.844,29.4,1
12017907,-0.244,-0.366,0.244,0.4082,0.0251,9.9563,27.910,29.4,1
12027918,-0.183,-0.366,0.244,0.4004,0.0162,9.9641,27.883,29.4,1
12037918,-0.122,-0.305,0.244,0.4154,0.0054,9.9611,27.877,29.4,1
12047928,-0.183,-0.366,0.305,0.4148,0.0084,9.9683,27.844,29.4,1
12057934,-0.183,-0.305,0.244,0.3962,0.0180,9.9569,27.832,29.4,1
12067944,-0.183,-0.366,0.305,0.3974,0.0096,9.9539,27.871,29.4,1
12077953,-0.244,-0.366,0.244,0.4208,0.0072,9.9748,27.848,29.4,1
12087964,-0.183,-0.366,0.183,0.4004,0.0293,9.9527,27.891,29.4,1
12097968,-0.183,-0.366,0.244,0.4082,0.0180,9.9557,27.828,29.4,1
12107984,-0.122,-0.366,0.244,0.4082,0.0102,9.9587,27.814,29.4,1
12117996,-0.122,-0.366,0.305,0.3962,0.0030,9.9623,27.873,29.4,1
12128003,-0.183,-0.366,0.305,0.4040,0.0275,9.9587,27.844,29.4,1
12138015,-0.122,-0.244,0.244,0.3944,0.0192,9.9719,27.840,29.4,1
12148026,-0.183,-0.244,0.244,0.4136,-0.0012,9.9653,27.877,29.4,1
12158026,-0.183,-0.366,0.244,0.4184,0.0198,9.9413,27.877,29.4,1
12168039,-0.122,-0.366,0.366,0.4112,0.0269,9.9557,27.854,29.4,1
12178045,-0.183,-0.305,0.305,0.4046,0.0371,9.9599,27.834,29.4,1
12188049,-0.244,-0.366,0.183,0.4052,0.0120,9.9545,27.908,29.4,1
12198054,-0.183,-0.366,0.244,0.4106,0.0293,9.9473,27.908,29.4,1
12208060,-0.122,-0.305,0.305,0.4190,0.0084,9.9581,27.859,29.4,1
12218067,-0.122,-0.305,0.244,0.4154,0.0138,9.9659,27.885,29.4,1
12228075,-0.244,-0.366,0.305,0.4154,0.0329,9.9647,27.891,29.4,1
12238085,-0.244,-0.366,0.305,0.4040,0.0353,9.9635,27.875,29.4,1
12248091,-0.122,-0.305,0.305,0.3968,0.0180,9.9677,27.828,29.4,1
12258106,-0.122,-0.305,0.244,0.3950,-0.0114,9.9689,27.875,29.4,1
12268118,-0.122,-0.305,0.183,0.4070,-0.0066,9.9605,27.883,29.4,1
12278121,-0.183,-0.244,0.244,0.4034,0.0066,9.9569,27.895,29.4,1
12288121,-0.183,-0.305,0.244,0.3980,0.0156,9.9389,27.861,29.4,1
12298121,-0.122,-0.427,0.183,0.3932,0.0096,9.9557,27.814,29.4,1
12308121,-0.183,-0.305,0.244,0.4010,0.0204,9.9695,27.846,29.4,1
12318125,-0.183,-0.305,0.244,0.3998,0.0060,9.9659,27.836,29.4,1
12328137,-0.183,-0.305,0.183,0.4052,0.0245,9.9593,27.828,29.4,1
12338143,-0.244,-0.366,0.244,0.4058,0.0078,9.9695,27.893,29.4,1
12348146,-0.183,-0.305,0.305,0.3855,0.0150,9.9671,27.895,29.4,1
12358152,-0.183,-0.305,0.305,0.4076,0.0102,9.9659,27.871,29.4,1
12368155,-0.183,-0.366,0.305,0.4046,0.0102,9.9521,27.893,29.4,1
12378163,-0.122,-0.366,0.244,0.4070,-0.0012,9.9647,27.873,29.4,1
12388177,-0.122,-0.366,0.244,0.4088,0.0293,9.9778,27.871,29.4,1
12398180,-0.122,-0.366,0.244,0.4118,0.0126,9.9521,27.871,29.4,1
12408186,-0.244,-0.244,0.244,0.4058,0.0108,9.9521,27.877,29.4,1
12418191,-0.183,-0.427,0.305,0.3926,0.0018,9.9736,27.857,29.4,1
12428197,-0.122,-0.366,0.244,0.3944,0.0048,9.9593,27.889,29.4,1
12438201,-0.183,-0.305,0.183,0.4046,0.0215,9.9491,27.850,29.4,1
12448213,-0.244,-0.305,0.244,0.4124,0.0341,9.9659,27.885,30.4,1
12458222,-0.183,-0.244,0.305,0.4082,0.0204,9.9593,27.879,30.4,1
12468224,-0.183,-0.305,0.305,0.3980,0.0036,9.9581,27.857,29.4,1
12478224,-0.244,-0.366,0.244,0.4160,0.0132,9.9599,27.838,29.4,1
12488238,-0.183,-0.305,0.305,0.3891,0.0132,9.9730,27.857,29.4,1
12498247,-0.183,-0.366,0.305,0.3980,0.0138,9.9497,27.850,29.4,1
12508255,-0.183,-0.427,0.305,0.4136,0.0054,9.9425,27.885,29.4,1
12518267,-0.244,-0.305,0.183,0.4124,-0.0090,9.9575,27.873,29.4,1
12528273,-0.183,-0.305,0.244,0.4016,0.0120,9.9479,27.855,29.4,1
12538285,-0.122,-0.366,0.305,0.4124,0.0174,9.9629,27.877,29.4,1
12548285,-0.244,-0.244,0.244,0.4130,0.0311,9.9545,27.863,29.4,1
12558292,-0.244,-0.366,0.244,0.4148,0.0383,9.9665,27.877,29.4,1
12568301,-0.305,-0.488,0.305,0.3962,0.0186,9.9527,27.873,29.4,1
12578308,-0.244,-0.366,0.244,0.3956,0.0030,9.9707,27.850,29.4,1
12588316,-0.183,-0.305,0.305,0.4124,0.0287,9.9557,27.893,29.4,1
12598318,-0.183,-0.366,0.244,0.4058,0.0060,9.9479,27.893,29.4,1
12608328,-0.244,-0.427,0.305,0.4034,-0.0012,9.9341,27.861,29.4,1
12618335,-0.183,-0.427,0.305,0.3992,0.0204,9.9575,27.820,30.4,1
12628346,-0.061,-0.427,0.183,0.4016,0.0287,9.9533,27.812,29.4,1
12638353,-0.122,-0.366,0.305,0.3891,0.0209,9.9533,27.887,29.4,1
12648361,-0.122,-0.366,0.305,0.4166,0.0198,9.9629,27.846,29.4,1
12658368,-0.244,-0.305,0.244,0.3897,0.0042,9.9497,27.900,29.4,1
12668380,-0.244,-0.305,0.305,0.3950,-0.0018,9.9617,27.822,30.4,1
12678392,-0.244,-0.305,0.305,0.4118,0.0120,9.9754,27.891,29.4,1
12688405,-0.122,-0.244,0.305,0.4238,0.0156,9.9730,27.838,29.4,1
12698414,-0.122,-0.366,0.244,0.4022,0.0269,9.9515,27.895,29.4,1
12708427,-0.061,-0.366,0.366,0.3891,0.0162,9.9635,27.879,30.4,1
12718441,-0.183,-0.366,0.366,0.4016,0.0006,9.9707,27.855,29.4,1
12728453,-0.183,-0.366,0.244,0.3885,0.0251,9.9539,27.857,29.4,1
12738456,-0.183,-0.244,0.183,0.3873,0.0120,9.9479,27.861,29.4,1
12748460,-0.305,-0.305,0.305,0.4076,0.0090,9.9659,27.838,29.4,1
12758471,-0.244,-0.366,0.244,0.4070,0.0162,9.9707,27.859,29.4,1
12768475,-0.122,-0.366,0.305,0.3926,0.0192,9.9748,27.846,29.4,1
12778475,-0.122,-0.305,0.305,0.3813,0.0299,9.9533,27.865,29.4,1
12788492,-0.122,-0.305,0.366,0.4040,0.0054,9.9473,27.859,29.4,1
12798496,-0.122,-0.366,0.305,0.4028,0.0042,9.9563,27.859,29.4,1
12808501,-0.183,-0.305,0.244,0.4100,0.0126,9.9533,27.855,29.4,1
12818504,-0.122,-0.305,0.244,0.3992,0.0257,9.9635,27.887,30.4,1
12828504,-0.122,-0.305,0.305,0.4160,0.0006,9.9778,27.877,29.4,1
12838504,-0.061,-0.244,0.305,0.4184,0.0132,9.9838,27.869,29.4,1
12848517,-0.183,-0.305,0.244,0.4334,0.0030,9.9413,27.850,29.4,1
12858523,-0.183,-0.305,0.244,0.4058,0.0281,9.9383,27.881,29.4,1
12868532,-0.183,-0.305,0.244,0.3968,0.0138,9.9563,27.879,29.4,1
12878534,-0.122,-0.366,0.183,0.4106,0.0096,9.9665,27.871,29.4,1
12888547,-0.183,-0.305,0.244,0.3873,0.0138,9.9539,27.857,29.4,1
12898557,-0.244,-0.183,0.122,0.4022,0.0209,9.9623,27.855,29.4,1
12908570,-0.244,-0.305,0.244,0.4148,0.0168,9.9814,27.854,29.4,1
12918580,-0.244,-0.305,0.244,0.4154,0.0239,9.9736,27.828,29.4,1
12928580,-0.122,-0.366,0.305,0.4070,0.0150,9.9689,27.883,29.4,1
12938593,-0.122,-0.305,0.305,0.3974,0.0251,9.9766,27.893,29.4,1
12948598,-0.061,-0.244,0.244,0.4166,0.0156,9.9461,27.812,29.4,1
12958603,-0.183,-0.244,0.305,0.3992,0.0132,9.9467,27.900,29.4,1
12968608,-0.244,-0.305,0.305,0.4034,0.0042,9.9707,27.895,29.4,1
12978608,-0.244,-0.305,0.244,0.4112,0.0335,9.9557,27.861,29.4,1
12988609,-0.244,-0.305,0.244,0.4118,0.0120,9.9748,27.861,30.4,1
12998623,-0.122,-0.305,0.244,0.4004,0.0293,9.9689,27.857,29.4,1
13008626,-0.122,-0.366,0.305,0.4064,0.0150,9.9575,27.881,29.4,1
13018633,-0.183,-0.366,0.305,0.4070,0.0245,9.9748,27.824,29.4,1
13028636,-0.122,-0.305,0.244,0.4106,0.0156,9.9677,27.820,29.4,1
13038644,-0.122,-0.305,0.183,0.4088,0.0120,9.9665,27.818,30.4,1
13048648,-0.183,-0.305,0.244,0.4130,0.0150,9.9323,27.875,30.4,1
13058654,-0.183,-0.305,0.244,0.4082,0.0120,9.9605,27.893,29.4,1
13068659,-0.183,-0.305,0.305,0.4184,0.0245,9.9647,27.867,29.4,1
13078664,-0.183,-0.366,0.366,0.3944,0.0180,9.9701,27.865,29.4,1
13088664,-0.183,-0.305,0.366,0.4040,0.0108,9.9431,27.859,29.4,1
13098669,-0.244,-0.366,0.305,0.4040,0.0335,9.9545,27.887,29.4,1
13108670,-0.183,-0.427,0.183,0.4136,0.0341,9.9611,27.877,29.4,1
13118671,-0.183,-0.366,0.244,0.4118,0.0144,9.9802,27.838,29.4,1
13128684,-0.244,-0.305,0.366,0.3855,0.0060,9.9820,27.875,29.4,1
13138686,-0.244,-0.305,0.244,0.3807,0.0108,9.9665,27.852,29.4,1
13148690,-0.183,-0.305,0.305,0.4184,0.0275,9.9443,27.918,29.4,1
13158690,-0.183,-0.366,0.244,0.4088,0.0233,9.9521,27.877,29.4,1
13168690,-0.183,-0.427,0.244,0.3837,0.0018,9.9569,27.834,30.4,1
13178691,-0.183,-0.427,0.305,0.4070,0.0090,9.9647,27.889,29.4,1
13188705,-0.122,-0.366,0.305,0.4166,0.0132,9.9575,27.889,29.4,1
13198705,-0.244,-0.366,0.244,0.4052,0.0132,9.9730,27.908,29.4,1
13208717,-0.244,-0.366,0.244,0.4100,0.0048,9.9503,27.840,29.4,1
13218730,-0.244,-0.366,0.305,0.4148,0.0192,9.9581,27.902,29.4,1
13228730,-0.122,-0.366,0.244,0.4100,0.0156,9.9485,27.846,29.4,1
13238737,-0.061,-0.427,0.244,0.4268,0.0287,9.9611,27.842,29.4,1
13248740,-0.183,-0.366,0.305,0.4160,0.0323,9.9647,27.887,30.4,1
13258743,-0.244,-0.305,0.244,0.4004,-0.0072,9.9389,27.875,29.4,1
13268755,-0.183,-0.366,0.244,0.3944,0.0030,9.9611,27.877,29.4,1
13278766,-0.183,-0.183,0.183,0.3998,0.0269,9.9569,27.885,30.4,1
13288778,-0.122,-0.427,0.305,0.4166,0.0138,9.9689,27.844,30.4,1
13298785,-0.183,-0.305,0.305,0.4160,0.0114,9.9683,27.840,29.4,1
13308793,-0.244,-0.305,0.305,0.4052,0.0018,9.9635,27.848,29.4,1
13318793,-0.244,-0.305,0.244,0.4016,-0.0012,9.9724,27.842,29.4,1
13328806,-0.305,-0.427,0.305,0.3932,-0.0042,9.9509,27.852,30.4,1
13338812,-0.122,-0.427,0.183,0.4058,0.0257,9.9707,27.846,29.4,1
13348816,-0.061,-0.366,0.244,0.4004,0.0275,9.9509,27.842,30.4,1
13358821,-0.122,-0.366,0.244,0.4052,0.0048,9.9551,27.844,29.4,1
13368827,-0.244,-0.366,0.305,0.4124,0.0036,9.9605,27.854,30.4,1
13378831,-0.244,-0.305,0.183,0.4082,-0.0006,9.9467,27.854,29.4,1
13388839,-0.122,-0.366,0.244,0.4076,0.0209,9.9557,27.842,30.4,1
13398841,-0.183,-0.366,0.305,0.4046,0.0030,9.9736,27.854,30.4,1
13408854,-0.122,-0.366,0.244,0.3974,0.0126,9.9641,27.875,30.4,1
13418862,-0.122,-0.305,0.244,0.4310,0.0174,9.9539,27.930,30.4,1
13428873,-0.183,-0.427,0.244,0.4028,0.0036,9.9425,27.818,30.4,1
13438882,-0.183,-0.427,0.183,0.3980,0.0192,9.9587,27.859,30.4,1
13448884,-0.244,-0.366,0.305,0.4172,0.0287,9.9569,27.887,30.4,1
13458888,-0.122,-0.366,0.305,0.4136,-0.0114,9.9719,27.877,29.4,1
13468898,-0.244,-0.366,0.244,0.4136,0.0000,9.9605,27.898,30.4,1
13478907,-0.244,-0.427,0.244,0.4004,0.0233,9.9485,27.875,30.4,1
13488907,-0.122,-0.366,0.183,0.3950,0.0180,9.9575,27.824,30.4,1
13498913,-0.183,-0.305,0.244,0.4022,0.0090,9.9653,27.879,30.4,1
13508922,-0.183,-0.366,0.244,0.3897,-0.0048,9.9730,27.846,29.4,1
13518935,-0.183,-0.366,0.244,0.4136,0.0102,9.9551,27.859,29.4,1
13528945,-0.244,-0.305,0.244,0.3932,0.0233,9.9569,27.859,29.4,1
13538953,-0.183,-0.305,0.305,0.4088,0.0114,9.9401,27.848,30.4,1
13548964,-0.244,-0.305,0.305,0.4130,0.0108,9.9713,27.867,30.4,1
13558968,-0.122,-0.366,0.244,0.4094,0.0192,9.9689,27.869,29.4,1
13568985,-0.183,-0.305,0.305,0.4160,0.0126,9.9671,27.877,29.4,1
13578985,-0.244,-0.427,0.244,0.4160,-0.0132,9.9629,27.877,29.4,1
13588996,-0.244,-0.305,0.183,0.4106,0.0018,9.9629,27.867,30.4,1
13598999,-0.244,-0.244,0.244,0.4154,0.0120,9.9413,27.867,30.4,1
13609009,-0.183,-0.366,0.366,0.4028,0.0186,9.9377,27.891,30.4,1
13619015,-0.183,-0.427,0.366,0.4064,0.0168,9.9802,27.885,29.4,1
13629024,-0.183,-0.366,0.305,0.4040,0.0078,9.9515,27.861,30.4,1
13639026,-0.244,-0.366,0.305,0.4172,0.0042,9.9431,27.887,30.4,1
13649034,-0.183,-0.305,0.244,0.4070,0.0227,9.9557,27.836,30.4,1
13659049,-0.244,-0.305,0.366,0.3903,-0.0024,9.9563,27.885,29.4,1
13669057,-0.244,-0.305,0.366,0.4100,0.0108,9.9431,27.818,30.4,1
13679060,-0.244,-0.305,0.244,0.4076,0.0239,9.9701,27.820,30.4,1
13689060,-0.122,-0.305,0.244,0.3992,0.0090,9.9742,27.861,29.4,1
13699072,-0.183,-0.366,0.305,0.3980,0.0096,9.9629,27.891,29.4,1
13709072,-0.122,-0.366,0.244,0.4046,0.0275,9.9587,27.893,30.4,1
13719072,-0.183,-0.366,0.244,0.3777,0.0012,9.9497,27.854,30.4,1
13729072,-0.122,-0.366,0.244,0.4094,0.0162,9.9509,27.850,29.4,1
13739072,-0.122,-0.305,0.305,0.4136,0.0192,9.9563,27.896,30.4,1
13749072,-0.122,-0.305,0.244,0.4082,0.0233,9.9503,27.859,29.4,1
13759085,-0.183,-0.366,0.305,0.4130,0.0108,9.9659,27.859,29.4,1
13769091,-0.305,-0.305,0.244,0.4100,0.0257,9.9593,27.861,29.4,1
13779094,-0.244,-0.366,0.305,0.4028,0.0257,9.9611,27.861,29.4,1
13789103,-0.244,-0.366,0.244,0.4100,0.0150,9.9521,27.889,30.4,1
13799106,-0.183,-0.305,0.366,0.4022,-0.0030,9.9485,27.840,29.4,1
13809118,-0.061,-0.305,0.244,0.3938,0.0066,9.9754,27.908,29.4,1
13819130,-0.122,-0.305,0.305,0.4052,0.0018,9.9707,27.850,30.4,1
13829140,-0.183,-0.244,0.305,0.4130,0.0072,9.9623,27.859,30.4,1
13839152,-0.244,-0.305,0.244,0.4016,-0.0078,9.9754,27.852,30.4,1
13849163,-0.305,-0.305,0.183,0.4052,0.0012,9.9611,27.863,29.4,1
13859171,-0.183,-0.305,0.244,0.3944,0.0275,9.9347,27.850,30.4,1
13869179,-0.183,-0.305,0.244,0.4202,0.0078,9.9629,27.846,29.4,1
13879179,-0.183,-0.305,0.183,0.4196,-0.0042,9.9461,27.830,30.4,1
13889191,-0.183,-0.366,0.305,0.4034,0.0257,9.9635,27.885,29.4,1
13899201,-0.183,-0.305,0.244,0.3938,0.0090,9.9671,27.809,29.4,1
13909213,-0.183,-0.305,0.183,0.4142,0.0078,9.9754,27.812,30.4,1
13919224,-0.183,-0.427,0.244,0.4016,0.0018,9.9575,27.896,30.4,1
13929238,-0.122,-0.366,0.244,0.4106,0.0060,9.9503,27.820,30.4,1
13939252,-0.244,-0.427,0.244,0.4058,0.0227,9.9413,27.852,30.4,1
13949253,-0.183,-0.366,0.305,0.4040,0.0108,9.9617,27.854,29.4,1
13959260,-0.183,-0.305,0.366,0.4136,0.0138,9.9695,27.855,30.4,1
13969275,-0.061,-0.305,0.244,0.4064,0.0150,9.9479,27.908,30.4,1
13979277,-0.183,-0.366,0.305,0.4064,0.0132,9.9539,27.908,30.4,1
13989285,-0.244,-0.305,0.244,0.4154,0.0120,9.9647,27.830,30.4,1
13999285,-0.183,-0.305,0.305,0.4154,0.0126,9.9623,27.881,29.4,1
14009298,-0.366,-0.305,0.305,0.4010,0.0204,9.9539,27.875,29.4,1
14019308,-0.305,-0.366,0.305,0.4010,-0.0024,9.9377,27.863,29.4,1
14029319,-0.305,-0.366,0.244,0.4010,0.0012,9.9683,27.865,30.4,1
14039320,-0.183,-0.305,0.244,0.4010,0.0263,9.9778,27.873,30.4,1
14049329,-0.122,-0.305,0.244,0.4070,0.0180,9.9497,27.855,30.4,1
14059341,-0.122,-0.305,0.305,0.4100,0.0198,9.9455,27.875,30.4,1
14069353,-0.244,-0.305,0.244,0.3962,0.0048,9.9719,27.863,29.4,1
14079353,-0.183,-0.305,0.244,0.4016,0.0054,9.9551,27.863,29.4,1
14089365,-0.244,-0.366,0.244,0.4016,0.0126,9.9695,27.811,29.4,1
14099375,-0.183,-0.305,0.244,0.4166,0.0120,9.9730,27.867,30.4,1
14109377,-0.183,-0.366,0.244,0.4076,-0.0060,9.9515,27.875,30.4,1
14119377,-0.244,-0.427,0.305,0.4058,0.0114,9.9300,27.930,30.4,1
14129377,-0.183,-0.244,0.244,0.4172,0.0138,9.9425,27.867,30.4,1
14139377,-0.305,-0.366,0.244,0.4154,0.0275,9.9581,27.893,30.4,1
14149389,-0.183,-0.366,0.244,0.3915,0.0168,9.9647,27.854,30.4,1
14159399,-0.122,-0.305,0.244,0.4046,0.0341,9.9569,27.873,30.4,1
14169407,-0.305,-0.366,0.305,0.3986,-0.0018,9.9635,27.873,29.4,1
14179420,-0.244,-0.305,0.366,0.3980,0.0066,9.9569,27.844,30.4,1
14189429,-0.183,-0.366,0.244,0.4166,0.0233,9.9605,27.895,30.4,1
14199441,-0.183,-0.305,0.305,0.4094,-0.0114,9.9713,27.840,30.4,1
14209445,-0.244,-0.244,0.244,0.4124,0.0072,9.9659,27.873,29.4,1
14219451,-0.244,-0.305,0.244,0.4082,0.0168,9.9509,27.879,30.4,1
14229453,-0.122,-0.366,0.305,0.4112,0.0126,9.9635,27.857,30.4,1
14239455,-0.183,-0.427,0.244,0.4118,-0.0042,9.9659,27.832,30.4,1
14249460,-0.183,-0.366,0.183,0.3861,0.0072,9.9509,27.908,30.4,1
14259460,-0.244,-0.305,0.244,0.3897,0.0198,9.9497,27.871,30.4,1
14269471,-0.122,-0.366,0.244,0.4082,0.0227,9.9701,27.885,30.4,1
14279481,-0.122,-0.366,0.244,0.4028,0.0132,9.9653,27.877,30.4,1
14289486,-0.122,-0.366,0.305,0.4022,0.0192,9.9647,27.861,30.4,1
14299486,-0.122,-0.366,0.305,0.3956,0.0150,9.9850,27.877,30.4,1
14309489,-0.122,-0.366,0.244,0.3992,0.0060,9.9653,27.902,30.4,1
14319489,-0.244,-0.305,0.244,0.4046,0.0204,9.9701,27.848,30.4,1
14329501,-0.183,-0.305,0.305,0.3956,-0.0048,9.9593,27.883,30.4,1
14339515,-0.183,-0.305,0.244,0.4226,0.0215,9.9413,27.855,30.4,1
14349517,-0.183,-0.366,0.305,0.4088,0.0293,9.9677,27.871,30.4,1
14359517,-0.183,-0.305,0.305,0.4106,0.0132,9.9515,27.863,29.4,1
14369527,-0.183,-0.244,0.305,0.4046,-0.0018,9.9575,27.863,30.4,1
14379538,-0.183,-0.305,0.244,0.4112,0.0156,9.9623,27.873,30.4,1
14389547,-0.244,-0.366,0.244,0.4142,0.0030,9.9683,27.836,30.4,1
14399556,-0.183,-0.366,0.305,0.4148,0.0168,9.9617,27.811,30.4,1
14409568,-0.183,-0.366,0.244,0.4034,0.0012,9.9509,27.828,30.4,1
14419580,-0.244,-0.366,0.244,0.4070,0.0138,9.9599,27.889,30.4,1
14429588,-0.183,-0.305,0.244,0.4004,0.0096,9.9539,27.865,30.4,1
14439599,-0.122,-0.244,0.305,0.4004,0.0120,9.9455,27.875,30.4,1
14449610,-0.122,-0.366,0.244,0.4148,0.0042,9.9689,27.873,30.4,1
14459615,-0.122,-0.366,0.366,0.4082,0.0215,9.9760,27.896,30.4,1
14469629,-0.183,-0.366,0.183,0.4172,0.0245,9.9521,27.850,30.4,1
14479633,-0.183,-0.427,0.122,0.4190,0.0287,9.9701,27.867,30.4,1
14489644,-0.183,-0.305,0.244,0.3992,0.0192,9.9563,27.895,30.4,1
14499644,-0.183,-0.366,0.244,0.4070,0.0227,9.9647,27.936,30.4,1
14509646,-0.305,-0.305,0.305,0.4316,0.0329,9.9677,27.844,30.4,1
14519660,-0.244,-0.305,0.244,0.3974,0.0018,9.9581,27.811,30.4,1
14529671,-0.122,-0.427,0.244,0.3962,0.0174,9.9539,27.891,30.4,1
14539671,-0.183,-0.366,0.183,0.4130,0.0186,9.9599,27.898,30.4,1
14549671,-0.305,-0.427,0.305,0.4034,0.0144,9.9539,27.875,30.4,1
14559671,-0.244,-0.366,0.244,0.4070,0.0030,9.9503,27.875,30.4,1
14569679,-0.122,-0.305,0.244,0.4082,0.0209,9.9677,27.871,30.4,1
14579690,-0.183,-0.244,0.244,0.4088,0.0162,9.9533,27.859,30.4,1
14589702,-0.183,-0.305,0.244,0.3861,0.0221,9.9431,27.859,30.4,1
14599702,-0.183,-0.305,0.366,0.3885,0.0060,9.9503,27.877,30.4,1
14609715,-0.183,-0.366,0.305,0.4076,0.0132,9.9401,27.889,30.4,1
14619725,-0.183,-0.305,0.183,0.3950,0.0293,9.9581,27.832,30.4,1
14629736,-0.183,-0.427,0.183,0.3962,0.0102,9.9485,27.887,30.4,1
14639747,-0.122,-0.366,0.305,0.3998,0.0221,9.9563,27.844,30.4,1
14649752,-0.122,-0.366,0.244,0.4232,0.0120,9.9509,27.895,30.4,1
14659755,-0.183,-0.427,0.244,0.4076,0.0084,9.9371,27.879,30.4,1
14669763,-0.244,-0.305,0.305,0.3921,0.0204,9.9736,27.848,30.4,1
14679764,-0.183,-0.366,0.244,0.3986,0.0293,9.9742,27.871,30.4,1
14689766,-0.244,-0.366,0.305,0.4136,0.0126,9.9677,27.865,30.4,1
14699766,-0.183,-0.305,0.305,0.4070,0.0168,9.9599,27.869,30.4,1
14709766,-0.244,-0.366,0.244,0.4178,0.0299,9.9754,27.857,30.4,1
14719766,-0.244,-0.366,0.305,0.4100,0.0233,9.9641,27.844,30.4,1
14729766,-0.305,-0.366,0.366,0.4178,0.0245,9.9329,27.867,30.4,1
14739778,-0.183,-0.183,0.244,0.3986,0.0162,9.9431,27.869,30.4,1
14749778,-0.183,-0.244,0.244,0.3974,0.0144,9.9437,27.883,30.4,1
14759781,-0.244,-0.427,0.305,0.3891,0.0233,9.9611,27.883,30.4,1
14769793,-0.122,-0.305,0.244,0.3968,0.0245,9.9683,27.877,30.4,1
14779807,-0.183,-0.244,0.183,0.3974,0.0012,9.9509,27.893,30.4,1
14789816,-0.305,-0.305,0.244,0.3998,0.0239,9.9790,27.855,30.4,1
14799827,-0.183,-0.366,0.244,0.4166,0.0281,9.9677,27.871,30.4,1
14809831,-0.183,-0.366,0.244,0.4178,0.0209,9.9635,27.873,30.4,1
14819835,-0.122,-0.427,0.244,0.4082,0.0036,9.9431,27.885,30.4,1
14829839,-0.183,-0.366,0.305,0.4046,0.0036,9.9766,27.844,30.4,1
14839852,-0.244,-0.427,0.183,0.3998,0.0114,9.9653,27.857,30.4,1
14849857,-0.244,-0.366,0.183,0.4118,0.0275,9.9563,27.902,30.4,1
14859868,-0.183,-0.427,0.305,0.4136,0.0150,9.9503,27.871,30.4,1
14869877,-0.183,-0.305,0.305,0.4112,0.0018,9.9545,27.832,30.4,1
14879877,-0.183,-0.244,0.305,0.4004,-0.0006,9.9617,27.902,30.4,1
14889877,-0.183,-0.305,0.183,0.4010,0.0120,9.9671,27.885,30.4,1
14899877,-0.244,-0.366,0.183,0.4094,0.0263,9.9683,27.844,30.4,1
14909882,-0.244,-0.427,0.305,0.4130,0.0335,9.9671,27.875,30.4,1
14919882,-0.244,-0.366,0.305,0.3909,0.0198,9.9754,27.885,30.4,1
14929887,-0.122,-0.305,0.305,0.4106,0.0233,9.9730,27.881,30.4,1
14939900,-0.122,-0.305,0.244,0.4016,0.0239,9.9695,27.891,30.4,1
14949913,-0.183,-0.366,0.244,0.4082,0.0305,9.9683,27.844,30.4,1
14959913,-0.061,-0.366,0.244,0.4028,0.0120,9.9760,27.844,30.4,1
14969915,-0.183,-0.427,0.244,0.4004,0.0204,9.9647,27.830,30.4,1
14979915,-0.183,-0.427,0.244,0.3962,0.0168,9.9695,27.848,30.4,1
14989915,-0.244,-0.305,0.244,0.4040,0.0078,9.9611,27.816,30.4,1
14999928,-0.122,-0.305,0.244,0.3980,-0.0018,9.9635,27.865,30.4,1
15009928,-0.122,-0.366,0.244,0.4118,0.0048,9.9539,27.900,30.4,1
15019938,-0.183,-0.305,0.244,0.4040,0.0156,9.9491,27.865,30.4,1
15029943,-0.183,-0.305,0.183,0.3986,0.0132,9.9551,27.850,30.4,1
15039945,-0.183,-0.366,0.244,0.4148,0.0215,9.9599,27.863,30.4,1
15049958,-0.183,-0.305,0.244,0.3998,0.0168,9.9629,27.861,30.4,1
15059971,-0.183,-0.366,0.183,0.4010,0.0174,9.9659,27.855,30.4,1
15069988,-0.183,-0.244,0.244,0.4040,0.0263,9.9593,27.854,30.4,1
15079999,-0.183,-0.366,0.305,0.4052,0.0150,9.9539,27.898,30.4,1
15090001,-0.183,-0.366,0.244,0.3909,0.0036,9.9647,27.879,30.4,1
15100011,-0.244,-0.305,0.244,0.4082,0.0078,9.9395,27.875,30.4,1
15110024,-0.244,-0.305,0.305,0.4052,0.0215,9.9377,27.898,30.4,1
15120026,-0.061,-0.305,0.244,0.3980,-0.0024,9.9503,27.887,29.4,1
15130034,-0.183,-0.305,0.366,0.4088,-0.0036,9.9515,27.914,30.4,1
15140045,-0.183,-0.366,0.305,0.4142,0.0180,9.9491,27.852,30.4,1
15150045,-0.122,-0.305,0.183,0.4148,0.0335,9.9581,27.852,30.4,1
15160049,-0.183,-0.305,0.183,0.4142,0.0198,9.9802,27.811,30.4,1
15170057,-0.244,-0.366,0.366,0.4070,0.0018,9.9952,27.875,30.4,1
15180060,-0.305,-0.366,0.305,0.4136,0.0221,9.9880,27.891,30.4,1
15190064,-0.183,-0.366,0.244,0.3873,0.0335,9.9742,27.895,30.4,1
15200070,-0.183,-0.305,0.305,0.4160,0.0042,9.9473,27.875,30.4,1
15210076,-0.122,-0.305,0.244,0.4058,0.0431,9.9730,27.906,30.4,1
15220079,-0.183,-0.183,0.244,0.3962,0.0156,9.9569,27.855,30.4,1
15230091,-0.244,-0.305,0.244,0.3986,0.0186,9.9742,27.824,30.4,1
15240100,-0.183,-0.305,0.305,0.4010,0.0269,9.9395,27.861,30.4,1
15250106,-0.244,-0.366,0.305,0.4100,0.0317,9.9641,27.887,30.4,1
15260106,-0.183,-0.366,0.244,0.4034,0.0341,9.9467,27.873,30.4,1
15270120,-0.122,-0.427,0.244,0.4148,0.0066,9.9736,27.867,30.4,1
15280130,-0.183,-0.244,0.183,0.3938,0.0144,9.9611,27.891,30.4,1
15290136,-0.244,-0.427,0.183,0.4064,0.0150,9.9677,27.861,30.4,1
15300146,-0.183,-0.305,0.183,0.4022,0.0245,9.9647,27.857,30.4,1
15310152,-0.305,-0.305,0.244,0.4004,0.0108,9.9605,27.885,30.4,1
15320152,-0.244,-0.366,0.244,0.4130,0.0287,9.9539,27.900,30.4,1
15330155,-0.122,-0.305,0.305,0.4088,0.0263,9.9754,27.834,30.4,1
15340155,-0.183,-0.366,0.305,0.4034,-0.0084,9.9593,27.852,30.4,1
15350161,-0.183,-0.366,0.244,0.4106,0.0018,9.9707,27.852,30.4,1
15360161,-0.183,-0.366,0.305,0.4184,0.0209,9.9479,27.898,30.4,1
15370164,-0.122,-0.366,0.183,0.4190,0.0096,9.9796,27.861,30.4,1
15380176,-0.244,-0.427,0.244,0.4058,0.0156,9.9545,27.877,30.4,1
15390176,-0.122,-0.366,0.244,0.4118,0.0138,9.9449,27.871,30.4,1
15400186,-0.183,-0.366,0.244,0.4082,0.0018,9.9647,27.865,30.4,1
15410197,-0.183,-0.427,0.244,0.3944,0.0078,9.9611,27.842,30.4,1
15420209,-0.122,-0.366,0.244,0.4022,0.0204,9.9599,27.902,30.4,1
15430216,-0.244,-0.305,0.305,0.4238,0.0251,9.9509,27.873,30.4,1
15440224,-0.305,-0.244,0.305,0.4076,0.0072,9.9689,27.875,30.4,1
15450224,-0.183,-0.366,0.244,0.3956,0.0192,9.9557,27.881,30.4,1
15460224,-0.305,-0.366,0.305,0.4070,0.0138,9.9683,27.855,30.4,1
15470224,-0.305,-0.427,0.244,0.4106,0.0030,9.9653,27.875,30.4,1
15480224,-0.183,-0.366,0.244,0.3837,0.0144,9.9485,27.857,30.4,1
15490238,-0.122,-0.366,0.244,0.4196,0.0090,9.9778,27.875,30.4,1
15500240,-0.183,-0.305,0.305,0.4208,0.0024,9.9647,27.842,30.4,1
15510253,-0.183,-0.305,0.366,0.4046,0.0030,9.9449,27.852,30.4,1
15520253,-0.244,-0.244,0.244,0.4082,0.0204,9.9533,27.881,30.4,1
15530255,-0.244,-0.366,0.244,0.4082,0.0221,9.9551,27.861,30.4,1
15540255,-0.244,-0.366,0.244,0.3843,0.0168,9.9623,27.867,30.4,1
15550258,-0.244,-0.366,0.305,0.4052,0.0168,9.9677,27.867,30.4,1
15560267,-0.244,-0.305,0.183,0.4064,0.0132,9.9653,27.846,30.4,1
15570267,-0.305,-0.305,0.183,0.4100,0.0186,9.9527,27.865,30.4,1
15580270,-0.244,-0.366,0.305,0.4160,0.0156,9.9527,27.881,30.4,1
15590283,-0.183,-0.366,0.244,0.3974,0.0287,9.9623,27.854,30.4,1
15600285,-0.061,-0.305,0.244,0.3926,0.0126,9.9353,27.830,30.4,1
15610288,-0.183,-0.305,0.305,0.4184,0.0036,9.9689,27.869,30.4,1
15620301,-0.244,-0.366,0.244,0.4040,0.0204,9.9719,27.881,30.4,1
15630308,-0.183,-0.366,0.244,0.3980,0.0323,9.9689,27.832,30.4,1
15640320,-0.183,-0.305,0.244,0.4070,0.0102,9.9479,27.885,30.4,1
15650331,-0.244,-0.305,0.183,0.4034,-0.0084,9.9557,27.879,30.4,1
15660331,-0.122,-0.244,0.244,0.4118,0.0227,9.9701,27.900,30.4,1
15670343,-0.122,-0.305,0.305,0.4160,0.0114,9.9724,27.854,30.4,1
15680346,-0.244,-0.305,0.183,0.3968,0.0198,9.9581,27.871,30.4,1
15690359,-0.244,-0.366,0.183,0.4022,0.0090,9.9323,27.859,30.4,1
15700359,-0.244,-0.366,0.244,0.4106,0.0090,9.9533,27.881,30.4,1
15710368,-0.122,-0.366,0.305,0.4064,0.0066,9.9778,27.887,30.4,1
15720377,-0.183,-0.305,0.244,0.4004,0.0192,9.9695,27.889,30.4,1
15730377,-0.244,-0.427,0.183,0.3980,0.0168,9.9473,27.877,30.4,1
15740377,-0.183,-0.366,0.244,0.3921,-0.0012,9.9641,27.877,30.4,1
15750377,-0.122,-0.366,0.244,0.3986,0.0227,9.9689,27.873,30.4,1
15760390,-0.244,-0.305,0.305,0.3962,0.0012,9.9593,27.850,30.4,1
15770405,-0.244,-0.305,0.305,0.3962,0.0090,9.9683,27.916,30.4,1
15780405,-0.183,-0.305,0.244,0.3974,0.0299,9.9563,27.838,30.4,1
15790405,-0.183,-0.366,0.305,0.3992,0.0209,9.9407,27.877,30.4,1
15800407,-0.183,-0.366,0.305,0.3885,0.0096,9.9581,27.844,30.4,1
15810414,-0.244,-0.305,0.366,0.4124,0.0126,9.9814,27.859,30.4,1
15820422,-0.183,-0.305,0.244,0.4160,0.0066,9.9413,27.826,30.4,1
15830422,-0.244,-0.305,0.183,0.3867,0.0090,9.9431,27.867,30.4,1
15840422,-0.183,-0.366,0.305,0.3932,0.0132,9.9503,27.895,30.4,1
15850426,-0.122,-0.305,0.305,0.4052,0.0180,9.9437,27.898,30.4,1
15860437,-0.122,-0.366,0.305,0.4028,0.0132,9.9701,27.840,30.4,1
15870450,-0.183,-0.305,0.305,0.4082,-0.0060,9.9665,27.861,30.4,1
15880457,-0.122,-0.305,0.305,0.4040,-0.0060,9.9527,27.887,30.4,1
15890471,-0.183,-0.244,0.244,0.4052,-0.0060,9.9323,27.867,30.4,1
15900486,-0.183,-0.366,0.305,0.3950,0.0144,9.9611,27.893,30.4,1
15910493,-0.183,-0.427,0.183,0.4004,0.0138,9.9898,27.889,30.4,1
15920496,-0.305,-0.305,0.244,0.3968,0.0018,9.9730,27.898,30.4,1
15930507,-0.244,-0.366,0.305,0.4022,0.0054,9.9587,27.881,30.4,1
15940511,-0.244,-0.366,0.244,0.3921,0.0042,9.9551,27.881,30.4,1
15950517,-0.244,-0.427,0.305,0.4028,0.0132,9.9467,27.832,30.4,1
15960527,-0.122,-0.366,0.305,0.4010,0.0186,9.9671,27.859,30.4,1
15970538,-0.122,-0.366,0.244,0.4304,0.0150,9.9509,27.889,30.4,1
15980547,-0.183,-0.305,0.305,0.4280,0.0030,9.9575,27.844,30.4,1
15990547,-0.183,-0.305,0.305,0.3980,0.0144,9.9742,27.881,30.4,1
16000547,-0.183,-0.427,0.305,0.3950,0.0257,9.9760,27.867,30.4,1
16010547,-0.122,-0.427,0.244,0.4316,0.0066,9.9425,27.879,30.4,1
16020560,-0.183,-0.366,0.244,0.4130,-0.0072,9.9707,27.895,30.4,1
16030572,-0.183,-0.305,0.244,0.3956,0.0078,9.9467,27.896,30.4,1
16040580,-0.122,-0.244,0.305,0.4100,0.0078,9.9359,27.881,30.4,1
16050584,-0.244,-0.366,0.244,0.4070,0.0353,9.9497,27.855,30.4,1
16060587,-0.305,-0.305,0.244,0.4100,0.0036,9.9772,27.877,30.4,1
16070588,-0.305,-0.305,0.244,0.4220,0.0090,9.9587,27.861,30.4,1
16080602,-0.183,-0.488,0.244,0.4130,0.0096,9.9449,27.898,30.4,1
16090603,-0.244,-0.366,0.244,0.3956,0.0144,9.9587,27.867,30.4,1
16100603,-0.183,-0.305,0.244,0.3974,0.0209,9.9347,27.906,30.4,1
16110614,-0.183,-0.366,0.305,0.4070,0.0251,9.9659,27.896,30.4,1
16120618,-0.061,-0.366,0.305,0.4154,0.0198,9.9509,27.895,30.4,1
16130618,-0.183,-0.305,0.305,0.4052,0.0180,9.9671,27.824,30.4,1
16140621,-0.305,-0.305,0.305,0.4118,0.0329,9.9719,27.824,30.4,1
16150633,-0.244,-0.305,0.305,0.3992,0.0162,9.9431,27.889,30.4,1
16160633,-0.183,-0.305,0.305,0.3986,0.0054,9.9587,27.854,30.4,1
16170633,-0.122,-0.244,0.305,0.4148,0.0126,9.9844,27.881,30.4,1
16180644,-0.183,-0.427,0.244,0.4016,0.0192,9.9671,27.844,30.4,1
16190648,-0.122,-0.427,0.183,0.4124,0.0108,9.9850,27.877,30.4,1
16200648,-0.122,-0.427,0.183,0.4226,0.0054,9.9605,27.879,30.4,1
16210654,-0.244,-0.366,0.305,0.3855,0.0108,9.9311,27.893,30.4,1
16220660,-0.244,-0.305,0.244,0.3795,0.0048,9.9683,27.850,30.4,1
16230673,-0.122,-0.366,0.183,0.4124,0.0192,9.9760,27.922,30.4,1
16240684,-0.183,-0.427,0.244,0.4082,0.0174,9.9683,27.875,30.4,1
16250694,-0.122,-0.427,0.305,0.3879,-0.0018,9.9629,27.887,30.4,1
16260706,-0.122,-0.427,0.244,0.4154,-0.0138,9.9689,27.912,30.4,1
16270706,-0.244,-0.366,0.305,0.4226,0.0156,9.9856,27.914,30.4,1
16280707,-0.183,-0.305,0.244,0.4136,0.0120,9.9599,27.877,30.4,1
16290721,-0.122,-0.488,0.183,0.4148,-0.0090,9.9593,27.852,30.4,1
16300725,-0.183,-0.366,0.244,0.4196,0.0120,9.9617,27.922,30.4,1
16310730,-0.183,-0.366,0.244,0.4250,0.0030,9.9509,27.879,30.4,1
16320732,-0.244,-0.366,0.305,0.4106,0.0090,9.9509,27.869,30.4,1
16330732,-0.122,-0.427,0.305,0.4190,0.0126,9.9479,27.869,30.4,1
16340732,-0.122,-0.305,0.305,0.4040,0.0096,9.9509,27.918,30.4,1
16350745,-0.244,-0.366,0.305,0.4010,0.0114,9.9701,27.893,30.4,1
16360745,-0.183,-0.366,0.305,0.4082,0.0132,9.9701,27.887,30.4,1
16370748,-0.183,-0.244,0.244,0.4190,0.0054,9.9545,27.877,30.4,1
16380751,-0.183,-0.366,0.244,0.3968,0.0054,9.9659,27.885,30.4,1
16390755,-0.244,-0.305,0.244,0.4040,0.0251,9.9808,27.850,30.4,1
16400755,-0.244,-0.427,0.305,0.3861,0.0072,9.9641,27.912,30.4,1
16410766,-0.183,-0.244,0.244,0.4184,0.0227,9.9701,27.852,30.4,1
16420770,-0.183,-0.244,0.183,0.4250,0.0162,9.9695,27.834,30.4,1
16430770,-0.122,-0.305,0.244,0.4022,0.0162,9.9760,27.857,30.4,1
16440770,-0.183,-0.305,0.305,0.4052,0.0162,9.9533,27.869,30.4,1
16450770,-0.183,-0.305,0.305,0.4070,0.0114,9.9491,27.863,30.4,1
16460770,-0.122,-0.366,0.366,0.4058,0.0287,9.9778,27.875,30.4,1
16470770,-0.122,-0.305,0.305,0.4094,0.0233,9.9778,27.865,30.4,1
16480770,-0.122,-0.427,0.305,0.3998,0.0144,9.9713,27.875,30.4,1
16490770,-0.183,-0.366,0.244,0.4082,0.0060,9.9491,27.912,30.4,1
16500770,-0.122,-0.305,0.244,0.4064,0.0000,9.9671,27.846,30.4,1
16510778,-0.122,-0.366,0.305,0.4064,0.0048,9.9467,27.869,30.4,1
16520785,-0.183,-0.427,0.305,0.4082,0.0144,9.9389,27.877,30.4,1
16530793,-0.122,-0.366,0.122,0.4112,0.0108,9.9557,27.877,30.4,1
16540801,-0.244,-0.305,0.244,0.4220,0.0024,9.9569,27.826,30.4,1
16550813,-0.244,-0.366,0.305,0.4172,0.0204,9.9467,27.842,30.4,1
16560827,-0.183,-0.366,0.183,0.4064,0.0341,9.9814,27.871,30.4,1
16570836,-0.244,-0.366,0.244,0.3998,0.0138,9.9730,27.859,30.4,1
16580842,-0.183,-0.366,0.244,0.3968,0.0239,9.9623,27.922,30.4,1
16590856,-0.122,-0.366,0.305,0.4142,0.0138,9.9593,27.883,30.4,1
16600858,-0.061,-0.244,0.244,0.4172,0.0162,9.9641,27.910,30.4,1
16610858,-0.183,-0.244,0.244,0.4100,0.0144,9.9359,27.873,30.4,1
16620869,-0.183,-0.305,0.244,0.4076,0.0168,9.9575,27.838,30.4,1
16630882,-0.183,-0.305,0.244,0.4034,-0.0078,9.9575,27.902,30.4,1
16640883,-0.183,-0.305,0.366,0.3968,0.0168,9.9497,27.900,30.4,1
16650884,-0.183,-0.366,0.244,0.3855,0.0042,9.9647,27.875,30.4,1
16660884,-0.122,-0.305,0.244,0.3915,0.0036,9.9473,27.879,30.4,1
16670888,-0.122,-0.244,0.305,0.4076,0.0126,9.9707,27.865,30.4,1
16680889,-0.244,-0.366,0.305,0.4094,0.0293,9.9647,27.871,30.4,1
16690902,-0.183,-0.366,0.305,0.3903,0.0174,9.9868,27.875,30.4,1
16700904,-0.122,-0.366,0.305,0.3921,0.0006,9.9671,27.852,30.4,1
16710915,-0.183,-0.427,0.244,0.3861,0.0084,9.9742,27.809,30.4,1
16720928,-0.122,-0.427,0.244,0.4106,0.0006,9.9641,27.809,30.4,1
16730938,-0.183,-0.366,0.305,0.4022,0.0377,9.9641,27.891,30.4,1
16740949,-0.305,-0.427,0.244,0.3944,0.0168,9.9557,27.891,30.4,1
16750961,-0.183,-0.366,0.183,0.4106,-0.0072,9.9515,27.855,30.4,1
16760964,-0.183,-0.366,0.305,0.3956,0.0030,9.9641,27.855,30.4,1
16770968,-0.122,-0.427,0.244,0.4196,0.0174,9.9695,27.900,30.4,1
16780984,-0.183,-0.427,0.305,0.4004,0.0024,9.9515,27.891,30.4,1
16790996,-0.244,-0.305,0.183,0.4046,0.0096,9.9461,27.871,30.4,1
16801009,-0.244,-0.366,0.305,0.4130,0.0281,9.9754,27.871,30.4,1
16811018,-0.122,-0.305,0.305,0.4046,0.0251,9.9611,27.842,30.4,1
16821018,-0.183,-0.366,0.244,0.4028,0.0066,9.9605,27.887,30.4,1
16831030,-0.183,-0.366,0.244,0.4058,0.0215,9.9401,27.895,30.4,1
16841042,-0.122,-0.305,0.244,0.3992,0.0066,9.9557,27.865,30.4,1
16851042,-0.183,-0.366,0.305,0.4052,0.0102,9.9593,27.883,30.4,1
16861052,-0.244,-0.305,0.244,0.4130,0.0204,9.9479,27.900,30.4,1
16871055,-0.244,-0.366,0.244,0.4046,0.0084,9.9689,27.818,30.4,1
16881062,-0.183,-0.305,0.305,0.4100,0.0162,9.9641,27.861,30.4,1
16891070,-0.183,-0.244,0.244,0.4022,-0.0012,9.9707,27.873,30.4,1
16901072,-0.122,-0.244,0.244,0.3956,0.0078,9.9671,27.879,30.4,1
16911076,-0.183,-0.305,0.244,0.4130,0.0132,9.9569,27.920,30.4,1
16921085,-0.244,-0.427,0.183,0.3950,0.0198,9.9551,27.920,30.4,1
16931091,-0.244,-0.366,0.244,0.3956,0.0156,9.9335,27.826,30.4,1
16941102,-0.183,-0.366,0.305,0.4142,0.0090,9.9611,27.881,30.4,1
16951103,-0.122,-0.427,0.244,0.4070,0.0132,9.9730,27.861,30.4,1
16961106,-0.183,-0.488,0.244,0.3992,0.0096,9.9443,27.881,30.4,1
16971115,-0.183,-0.366,0.244,0.3903,0.0168,9.9623,27.844,30.4,1
16981118,-0.244,-0.427,0.244,0.4100,-0.0012,9.9515,27.875,30.4,1
16991131,-0.122,-0.366,0.244,0.4040,0.0066,9.9940,27.943,30.4,1
17001131,-0.183,-0.305,0.244,0.4298,-0.0006,9.9653,27.934,30.4,1
17011138,-0.122,-0.366,0.305,0.4070,0.0156,9.9659,27.891,30.4,1
17021152,-0.122,-0.366,0.305,0.4136,0.0078,9.9665,27.877,30.4,1
17031152,-0.122,-0.366,0.305,0.4016,0.0162,9.9814,27.871,30.4,1
17041165,-0.244,-0.305,0.366,0.3915,0.0024,9.9641,27.910,30.4,1
17051176,-0.183,-0.305,0.183,0.3992,0.0066,9.9473,27.861,30.4,1
17061179,-0.122,-0.366,0.305,0.4082,0.0341,9.9653,27.877,30.4,1
17071181,-0.244,-0.366,0.305,0.4064,0.0263,9.9760,27.875,30.4,1
17081192,-0.244,-0.305,0.305,0.4178,0.0036,9.9695,27.885,30.4,1
17091204,-0.244,-0.305,0.366,0.4004,-0.0060,9.9730,27.893,30.4,1
17101213,-0.244,-0.427,0.305,0.3855,0.0251,9.9557,27.875,30.4,1
17111224,-0.183,-0.305,0.244,0.4076,0.0383,9.9760,27.832,30.4,1
17121237,-0.183,-0.366,0.183,0.3974,0.0263,9.9611,27.832,30.4,1
17131243,-0.244,-0.305,0.183,0.4016,0.0215,9.9563,27.900,30.4,1
17141243,-0.183,-0.305,0.305,0.4016,0.0138,9.9665,27.898,30.4,1
17151247,-0.122,-0.366,0.244,0.4076,0.0030,9.9796,27.908,30.4,1
17161247,-0.183,-0.244,0.305,0.4088,0.0227,9.9479,27.881,30.4,1
17171247,-0.122,-0.305,0.244,0.4142,0.0132,9.9569,27.859,30.4,1
17181252,-0.183,-0.366,0.244,0.4100,0.0102,9.9551,27.869,30.4,1
17191255,-0.183,-0.305,0.305,0.3891,0.0156,9.9581,27.857,30.4,1
17201258,-0.122,-0.305,0.366,0.3926,0.0174,9.9527,27.875,30.4,1
17211270,-0.183,-0.305,0.183,0.4136,-0.0030,9.9515,27.910,30.4,1
17221275,-0.183,-0.305,0.305,0.3861,0.0233,9.9593,27.875,30.4,1
17231275,-0.183,-0.305,0.366,0.4058,0.0126,9.9724,27.840,30.4,1
17241275,-0.061,-0.366,0.244,0.4184,0.0275,9.9383,27.854,30.4,1
17251285,-0.183,-0.366,0.305,0.4040,-0.0072,9.9371,27.904,30.4,1
17261299,-0.244,-0.244,0.244,0.4046,-0.0126,9.9461,27.869,30.4,1
17271306,-0.244,-0.305,0.244,0.3909,0.0198,9.9503,27.852,30.4,1
17281313,-0.183,-0.366,0.305,0.3938,0.0132,9.9485,27.863,30.4,1
17291323,-0.244,-0.366,0.244,0.4112,-0.0054,9.9665,27.840,30.4,1
17301323,-0.244,-0.427,0.244,0.4172,0.0186,9.9611,27.912,30.4,1
17311329,-0.244,-0.305,0.244,0.4094,0.0096,9.9545,27.912,30.4,1
17321331,-0.183,-0.305,0.244,0.3915,0.0066,9.9545,27.869,30.4,1
17331338,-0.122,-0.305,0.305,0.4010,0.0024,9.9635,27.844,30.4,1
17341344,-0.183,-0.366,0.305,0.4106,0.0180,9.9563,27.885,30.4,1
17351346,-0.183,-0.366,0.183,0.4040,0.0150,9.9431,27.861,30.4,1
17361348,-0.122,-0.427,0.122,0.3944,0.0156,9.9503,27.846,30.4,1
17371359,-0.244,-0.305,0.183,0.3885,0.0132,9.9820,27.875,30.4,1
17381364,-0.244,-0.305,0.305,0.4130,0.0144,9.9515,27.883,30.4,1
17391374,-0.183,-0.366,0.244,0.4250,0.0036,9.9581,27.844,30.4,1
17401374,-0.183,-0.366,0.183,0.3950,0.0096,9.9611,27.869,30.4,1
17411377,-0.183,-0.427,0.183,0.4112,0.0227,9.9497,27.891,30.4,1
17421384,-0.244,-0.366,0.244,0.4034,0.0132,9.9479,27.879,30.4,1
17431384,-0.183,-0.366,0.244,0.3980,0.0293,9.9683,27.844,30.4,1
17441392,-0.183,-0.305,0.244,0.3980,0.0168,9.9539,27.875,30.4,1
17451405,-0.183,-0.366,0.244,0.4100,0.0120,9.9647,27.877,30.4,1
17461414,-0.122,-0.427,0.183,0.3944,0.0162,9.9641,27.875,30.4,1
17471422,-0.183,-0.366,0.183,0.4100,0.0114,9.9437,27.887,30.4,1
17481426,-0.183,-0.305,0.244,0.4208,0.0180,9.9533,27.902,30.4,1
17491437,-0.183,-0.305,0.244,0.4034,0.0281,9.9347,27.916,30.4,1
17501437,-0.183,-0.366,0.305,0.4022,0.0036,9.9497,27.883,30.4,1
17511450,-0.122,-0.305,0.305,0.4004,0.0108,9.9659,27.883,30.4,1
17521456,-0.183,-0.366,0.305,0.4100,0.0090,9.9557,27.889,30.4,1
17531456,-0.183,-0.366,0.366,0.4070,0.0072,9.9509,27.869,30.4,1
17541456,-0.183,-0.427,0.244,0.4124,0.0006,9.9659,27.871,30.4,1
17551457,-0.183,-0.366,0.244,0.4232,0.0084,9.9509,27.912,30.4,1
17561460,-0.183,-0.366,0.305,0.4172,0.0012,9.9748,27.875,30.4,1
17571460,-0.122,-0.305,0.305,0.3998,0.0293,9.9814,27.867,30.4,1
17581460,-0.122,-0.305,0.244,0.4046,0.0341,9.9503,27.896,30.4,1
17591471,-0.305,-0.366,0.244,0.3950,-0.0060,9.9563,27.830,30.4,1
17601486,-0.244,-0.427,0.244,0.4052,0.0084,9.9719,27.898,30.4,1
17611486,-0.122,-0.488,0.305,0.4022,0.0060,9.9545,27.893,30.4,1
17621489,-0.061,-0.366,0.305,0.4082,0.0024,9.9629,27.889,30.4,1
17631496,-0.183,-0.305,0.183,0.4124,-0.0018,9.9389,27.863,30.4,1
17641496,-0.122,-0.305,0.183,0.4070,0.0251,9.9695,27.871,30.4,1
17651504,-0.183,-0.366,0.183,0.4052,0.0162,9.9401,27.871,30.4,1
17661517,-0.244,-0.427,0.305,0.4172,0.0275,9.9467,27.857,30.4,1
17671517,-0.122,-0.305,0.305,0.4034,0.0401,9.9461,27.912,30.4,1
17681519,-0.183,-0.366,0.244,0.3992,0.0180,9.9707,27.898,30.4,1
17691532,-0.244,-0.427,0.244,0.4046,0.0114,9.9736,27.912,30.4,1
17701532,-0.244,-0.305,0.305,0.4052,0.0060,9.9671,27.873,30.4,1
17711538,-0.122,-0.366,0.305,0.4052,0.0305,9.9683,27.873,30.4,1
17721547,-0.183,-0.366,0.183,0.4004,0.0323,9.9671,27.838,30.4,1
17731549,-0.183,-0.366,0.183,0.3980,0.0114,9.9736,27.859,30.4,1
17741553,-0.061,-0.427,0.244,0.4010,-0.0018,9.9551,27.869,30.4,1
17751562,-0.122,-0.366,0.183,0.3986,0.0042,9.9599,27.873,30.4,1
17761565,-0.244,-0.305,0.305,0.4076,0.0084,9.9545,27.855,30.4,1
17771572,-0.183,-0.366,0.244,0.4148,0.0084,9.9665,27.873,30.4,1
17781576,-0.122,-0.427,0.244,0.3992,0.0180,9.9677,27.891,30.4,1
17791584,-0.122,-0.427,0.305,0.3903,0.0215,9.9485,27.834,30.4,1
17801588,-0.183,-0.366,0.305,0.3873,0.0281,9.9413,27.873,30.4,1
17811588,-0.244,-0.366,0.244,0.4046,0.0096,9.9449,27.830,30.4,1
17821591,-0.244,-0.305,0.305,0.4238,0.0108,9.9677,27.914,30.4,1
17831595,-0.122,-0.305,0.183,0.4130,0.0084,9.9611,27.879,30.4,1
17841603,-0.183,-0.305,0.244,0.4094,0.0090,9.9617,27.855,30.4,1
17851614,-0.305,-0.366,0.305,0.3980,0.0078,9.9707,27.873,30.4,1
17861629,-0.183,-0.366,0.244,0.3992,0.0054,9.9730,27.877,30.4,1
17871641,-0.061,-0.366,0.183,0.3974,0.0180,9.9623,27.889,30.4,1
17881648,-0.183,-0.427,0.305,0.4094,0.0168,9.9784,27.896,30.4,1
17891648,-0.122,-0.366,0.305,0.3777,0.0305,9.9683,27.863,30.4,1
17901659,-0.183,-0.366,0.305,0.4082,0.0132,9.9605,27.863,30.4,1
17911663,-0.183,-0.366,0.244,0.4118,0.0084,9.9629,27.887,30.4,1
17921670,-0.244,-0.244,0.183,0.4040,0.0042,9.9653,27.861,30.4,1
17931670,-0.244,-0.305,0.244,0.4016,0.0162,9.9683,27.873,30.4,1
17941675,-0.183,-0.305,0.244,0.4226,0.0126,9.9665,27.846,30.4,1
17951679,-0.244,-0.366,0.244,0.3980,0.0054,9.9515,27.871,30.4,1
17961687,-0.183,-0.366,0.244,0.3944,0.0209,9.9473,27.916,30.4,1
17971687,-0.122,-0.366,0.183,0.4046,0.0317,9.9605,27.857,30.4,1
17981694,-0.244,-0.366,0.244,0.4082,0.0048,9.9581,27.883,30.4,1
17991705,-0.183,-0.366,0.305,0.4028,0.0120,9.9719,27.865,30.4,1
18001709,-0.122,-0.427,0.244,0.4214,0.0138,9.9695,27.838,30.4,1
18011717,-0.183,-0.427,0.244,0.4016,0.0144,9.9772,27.867,30.4,1
18021730,-0.244,-0.366,0.244,0.3974,0.0168,9.9629,27.865,30.4,1
18031730,-0.183,-0.427,0.305,0.4136,0.0168,9.9413,27.881,30.4,1
18041732,-0.183,-0.366,0.305,0.4118,0.0066,9.9497,27.869,30.4,1
18051732,-0.122,-0.366,0.244,0.3980,0.0012,9.9419,27.875,30.4,1
18061732,-0.183,-0.305,0.366,0.3795,-0.0012,9.9533,27.924,30.4,1
18071740,-0.244,-0.366,0.244,0.3956,0.0024,9.9407,27.838,30.4,1
18081740,-0.122,-0.427,0.183,0.4004,0.0186,9.9563,27.844,30.4,1
18091746,-0.061,-0.305,0.244,0.4040,0.0012,9.9611,27.844,30.4,1
18101750,-0.244,-0.366,0.244,0.3903,0.0204,9.9599,27.844,30.4,1
18111755,-0.244,-0.427,0.244,0.4052,0.0233,9.9623,27.871,30.4,1
18121766,-0.244,-0.366,0.244,0.4118,0.0120,9.9479,27.891,30.4,1
18131770,-0.244,-0.244,0.244,0.4076,0.0132,9.9449,27.914,30.4,1
18141781,-0.244,-0.427,0.305,0.4118,0.0054,9.9359,27.908,30.4,1
18151793,-0.122,-0.366,0.305,0.4196,0.0257,9.9623,27.875,30.4,1
18161804,-0.061,-0.305,0.244,0.4154,0.0150,9.9557,27.848,30.4,1
18171808,-0.183,-0.305,0.244,0.4064,0.0257,9.9443,27.875,30.4,1
18181816,-0.244,-0.366,0.244,0.4172,0.0269,9.9605,27.875,30.4,1
18191821,-0.122,-0.366,0.305,0.4034,0.0150,9.9509,27.885,30.4,1
18201821,-0.122,-0.427,0.305,0.4154,0.0317,9.9730,27.844,30.4,1
18211831,-0.183,-0.427,0.305,0.4046,0.0162,9.9491,27.871,30.4,1
18221843,-0.183,-0.244,0.305,0.3974,0.0335,9.9647,27.883,30.4,1
18231858,-0.183,-0.244,0.305,0.3950,0.0078,9.9653,27.857,30.4,1
18241859,-0.183,-0.305,0.305,0.3992,0.0144,9.9617,27.908,30.4,1
18251873,-0.183,-0.305,0.305,0.4172,0.0204,9.9659,27.859,30.4,1
18261884,-0.183,-0.305,0.183,0.3903,0.0329,9.9605,27.881,30.4,1
18271890,-0.183,-0.305,0.244,0.4016,0.0030,9.9701,27.893,30.4,1
18281900,-0.183,-0.366,0.244,0.3956,0.0269,9.9635,27.889,30.4,1
18291903,-0.244,-0.305,0.305,0.3998,0.0192,9.9659,27.889,30.4,1
18301913,-0.122,-0.305,0.244,0.4028,0.0156,9.9515,27.881,30.4,1
18311922,-0.244,-0.366,0.183,0.4136,0.0078,9.9539,27.879,30.4,1
18321930,-0.183,-0.305,0.244,0.4142,0.0156,9.9665,27.883,30.4,1
18331930,-0.122,-0.305,0.244,0.4112,0.0036,9.9485,27.902,30.4,1
18341943,-0.122,-0.305,0.305,0.4028,0.0299,9.9491,27.885,30.4,1
18351952,-0.183,-0.305,0.244,0.4178,0.0174,9.9563,27.850,30.4,1
18361964,-0.244,-0.305,0.244,0.4124,0.0078,9.9719,27.855,30.4,1
18371964,-0.122,-0.488,0.244,0.4088,0.0132,9.9593,27.889,30.4,1
18381964,-0.122,-0.488,0.305,0.4142,0.0060,9.9844,27.895,30.4,1
18391973,-0.183,-0.305,0.305,0.4046,0.0162,9.9503,27.895,30.4,1
18401988,-0.244,-0.366,0.244,0.4088,0.0180,9.9581,27.863,30.4,1
18411996,-0.183,-0.366,0.183,0.4088,0.0263,9.9635,27.930,30.4,1
18422003,-0.183,-0.366,0.183,0.4226,0.0317,9.9647,27.867,30.4,1
18432014,-0.122,-0.366,0.244,0.4328,0.0269,9.9431,27.869,30.4,1
18442018,-0.183,-0.366,0.305,0.4052,0.0233,9.9623,27.859,30.4,1
18452021,-0.183,-0.366,0.244,0.3962,0.0078,9.9701,27.908,30.4,1
18462030,-0.122,-0.366,0.244,0.4070,-0.0108,9.9581,27.908,30.4,1
18472039,-0.183,-0.305,0.244,0.4100,0.0132,9.9707,27.875,30.4,1
18482049,-0.244,-0.305,0.305,0.4076,0.0251,9.9730,27.914,30.4,1
18492052,-0.183,-0.305,0.366,0.4064,0.0156,9.9683,27.914,30.4,1
18502062,-0.061,-0.305,0.244,0.4166,0.0156,9.9617,27.867,30.4,1
18512076,-0.122,-0.305,0.244,0.4178,0.0084,9.9653,27.863,30.4,1
18522085,-0.244,-0.305,0.244,0.4046,0.0257,9.9611,27.875,30.4,1
18532085,-0.122,-0.305,0.183,0.4082,0.0269,9.9677,27.885,30.4,1
18542087,-0.183,-0.366,0.183,0.4028,0.0215,9.9599,27.859,30.4,1
18552087,-0.183,-0.366,0.183,0.4106,0.0174,9.9467,27.869,30.4,1
18562094,-0.122,-0.305,0.183,0.4166,0.0204,9.9802,27.887,30.4,1
18572106,-0.122,-0.305,0.244,0.4238,0.0198,9.9473,27.852,30.4,1
18582113,-0.122,-0.305,0.244,0.3909,0.0407,9.9425,27.875,30.4,1
18592118,-0.244,-0.305,0.244,0.3921,0.0120,9.9605,27.873,30.4,1
18602130,-0.244,-0.305,0.183,0.4028,0.0215,9.9665,27.902,30.4,1
18612140,-0.122,-0.305,0.244,0.3909,0.0090,9.9479,27.887,30.4,1
18622152,-0.122,-0.305,0.305,0.3926,0.0090,9.9653,27.881,30.4,1
18632163,-0.244,-0.305,0.244,0.3926,0.0233,9.9539,27.898,30.4,1
18642165,-0.122,-0.305,0.244,0.4345,0.0108,9.9557,27.871,30.4,1
18652176,-0.183,-0.305,0.305,0.4052,0.0012,9.9766,27.879,30.4,1
18662182,-0.183,-0.366,0.183,0.3986,0.0138,9.9479,27.869,30.4,1
18672186,-0.183,-0.305,0.183,0.4064,0.0371,9.9695,27.881,30.4,1
18682197,-0.244,-0.305,0.244,0.4130,0.0287,9.9635,27.861,30.4,1
18692197,-0.183,-0.366,0.244,0.4112,0.0072,9.9659,27.861,30.4,1
18702201,-0.183,-0.305,0.244,0.4016,0.0341,9.9611,27.887,30.4,1
18712207,-0.122,-0.366,0.244,0.4226,0.0311,9.9533,27.863,30.4,1
18722216,-0.122,-0.305,0.244,0.4112,-0.0036,9.9754,27.848,30.4,1
18732222,-0.244,-0.305,0.244,0.4082,0.0168,9.9647,27.842,30.4,1
18742228,-0.244,-0.244,0.244,0.3980,0.0215,9.9581,27.875,30.4,1
18752231,-0.122,-0.366,0.183,0.4088,0.0036,9.9473,27.898,30.4,1
18762243,-0.122,-0.366,0.183,0.3968,0.0072,9.9808,27.861,30.4,1
18772243,-0.183,-0.366,0.244,0.4322,0.0048,9.9701,27.863,30.4,1
18782255,-0.183,-0.305,0.244,0.4046,0.0221,9.9455,27.846,30.4,1
18792262,-0.183,-0.366,0.244,0.3938,-0.0012,9.9521,27.887,30.4,1
18802275,-0.183,-0.427,0.244,0.4112,0.0156,9.9581,27.906,30.4,1
18812289,-0.183,-0.366,0.305,0.4112,0.0263,9.9671,27.830,30.4,1
18822303,-0.122,-0.366,0.305,0.3932,-0.0048,9.9683,27.891,30.4,1
18832308,-0.061,-0.427,0.244,0.3903,0.0120,9.9401,27.904,30.4,1
18842316,-0.183,-0.305,0.244,0.4214,0.0186,9.9347,27.928,30.4,1
18852316,-0.183,-0.366,0.244,0.4076,0.0138,9.9527,27.889,30.4,1
18862319,-0.122,-0.427,0.305,0.3903,0.0156,9.9778,27.881,30.4,1
18872323,-0.183,-0.366,0.244,0.4100,0.0227,9.9593,27.877,30.4,1
18882328,-0.183,-0.305,0.183,0.4112,0.0102,9.9449,27.896,30.4,1
18892334,-0.122,-0.305,0.183,0.4004,0.0084,9.9724,27.896,30.4,1
18902338,-0.122,-0.305,0.305,0.3932,0.0198,9.9617,27.852,30.4,1
18912351,-0.244,-0.366,0.244,0.3909,0.0150,9.9701,27.896,30.4,1
18922359,-0.183,-0.366,0.244,0.4118,0.0204,9.9784,27.848,30.4,1
18932368,-0.183,-0.305,0.244,0.4004,0.0239,9.9473,27.863,30.4,1
18942380,-0.244,-0.305,0.244,0.3956,0.0239,9.9748,27.898,30.4,1
18952392,-0.183,-0.366,0.244,0.4196,0.0186,9.9629,27.875,30.4,1
18962405,-0.183,-0.305,0.244,0.4136,0.0305,9.9527,27.846,30.4,1
18972414,-0.122,-0.366,0.244,0.4022,0.0042,9.9635,27.875,30.4,1
18982420,-0.244,-0.366,0.244,0.4142,0.0186,9.9760,27.875,30.4,1
18992426,-0.183,-0.366,0.183,0.4028,0.0186,9.9766,27.873,30.4,1
19002432,-0.244,-0.305,0.305,0.4076,0.0287,9.9814,27.857,30.4,1
19012445,-0.183,-0.305,0.305,0.4154,0.0156,9.9515,27.889,30.4,1
19022453,-0.183,-0.305,0.244,0.3950,0.0192,9.9425,27.889,30.4,1
19032456,-0.183,-0.366,0.244,0.3992,0.0060,9.9563,27.861,30.4,1
19042456,-0.122,-0.305,0.183,0.4118,0.0108,9.9659,27.875,30.4,1
19052468,-0.244,-0.366,0.244,0.4250,0.0060,9.9671,27.865,30.4,1
19062475,-0.244,-0.427,0.183,0.3843,0.0335,9.9623,27.855,30.4,1
19072486,-0.244,-0.366,0.183,0.3885,0.0245,9.9683,27.857,30.4,1
19082492,-0.183,-0.366,0.305,0.4172,0.0174,9.9820,27.857,30.4,1
19092501,-0.122,-0.244,0.305,0.4178,0.0227,9.9742,27.885,30.4,1
19102511,-0.183,-0.305,0.244,0.4100,0.0192,9.9479,27.889,30.4,1
19112517,-0.122,-0.427,0.244,0.4028,0.0048,9.9701,27.863,30.4,1
19122523,-0.122,-0.366,0.244,0.4022,0.0209,9.9820,27.871,30.4,1
19132523,-0.244,-0.244,0.305,0.4016,0.0180,9.9563,27.891,30.4,1
19142534,-0.122,-0.366,0.244,0.4208,0.0204,9.9826,27.895,30.4,1
19152538,-0.122,-0.366,0.244,0.4112,0.0174,9.9719,27.908,30.4,1
19162549,-0.183,-0.305,0.244,0.4028,0.0305,9.9515,27.852,30.4,1
19172556,-0.122,-0.427,0.244,0.4076,0.0174,9.9617,27.852,30.4,1
19182557,-0.183,-0.366,0.305,0.4004,0.0030,9.9683,27.848,30.4,1
19192568,-0.244,-0.305,0.305,0.3992,0.0186,9.9892,27.922,30.4,1
19202578,-0.183,-0.366,0.244,0.4058,0.0365,9.9599,27.902,30.4,1
19212580,-0.122,-0.366,0.244,0.4022,0.0287,9.9461,27.875,30.4,1
19222588,-0.183,-0.305,0.244,0.4034,0.0138,9.9641,27.869,30.4,1
19232594,-0.183,-0.305,0.244,0.3915,0.0204,9.9665,27.855,30.4,1
19242603,-0.183,-0.305,0.244,0.4094,0.0096,9.9587,27.861,30.4,1
19252610,-0.183,-0.366,0.244,0.4082,0.0138,9.9551,27.914,30.4,1
19262618,-0.183,-0.366,0.305,0.4076,0.0293,9.9599,27.881,30.4,1
19272632,-0.183,-0.366,0.305,0.4172,0.0126,9.9563,27.854,30.4,1
19282641,-0.183,-0.366,0.244,0.3956,0.0126,9.9407,27.854,30.4,1
19292641,-0.183,-0.488,0.244,0.4028,0.0245,9.9377,27.852,30.4,1
19302654,-0.244,-0.366,0.244,0.4106,0.0096,9.9551,27.855,30.4,1
19312660,-0.183,-0.244,0.183,0.4082,0.0162,9.9701,27.924,30.4,1
19322660,-0.183,-0.427,0.244,0.4160,0.0168,9.9551,27.809,30.4,1
19332670,-0.244,-0.427,0.305,0.4028,0.0192,9.9641,27.869,30.4,1
19342684,-0.244,-0.305,0.183,0.4058,-0.0012,9.9605,27.896,30.4,1
19352686,-0.122,-0.305,0.244,0.4004,0.0048,9.9647,27.885,30.4,1
19362694,-0.061,-0.366,0.366,0.4190,0.0138,9.9605,27.908,30.4,1
19372707,-0.122,-0.305,0.244,0.4052,0.0192,9.9665,27.850,30.4,1
19382707,-0.183,-0.305,0.305,0.3921,0.0287,9.9695,27.877,30.4,1
19392715,-0.122,-0.366,0.244,0.4040,0.0192,9.9736,27.875,30.4,1
19402725,-0.122,-0.305,0.305,0.4010,-0.0030,9.9539,27.908,30.4,1
19412736,-0.061,-0.366,0.305,0.3986,0.0024,9.9425,27.873,30.4,1
19422736,-0.183,-0.366,0.183,0.3909,0.0078,9.9509,27.867,30.4,1
19432739,-0.244,-0.366,0.183,0.3861,0.0198,9.9796,27.875,30.4,1
19442743,-0.183,-0.366,0.183,0.4106,0.0090,9.9521,27.844,30.4,1
19452755,-0.244,-0.366,0.305,0.4298,0.0198,9.9551,27.863,30.4,1
19462763,-0.183,-0.366,0.183,0.4076,0.0000,9.9629,27.877,30.4,1
19472763,-0.183,-0.305,0.244,0.3980,0.0048,9.9473,27.873,30.4,1
19482766,-0.183,-0.366,0.244,0.4064,0.0209,9.9581,27.873,30.4,1
19492770,-0.122,-0.366,0.244,0.4082,0.0186,9.9659,27.893,30.4,1
19502776,-0.122,-0.366,0.244,0.4046,0.0281,9.9802,27.867,30.4,1
19512781,-0.183,-0.244,0.244,0.3926,0.0281,9.9653,27.875,30.4,1
19522782,-0.244,-0.366,0.122,0.4010,0.0114,9.9796,27.838,30.4,1
19532793,-0.183,-0.366,0.244,0.4184,0.0126,9.9677,27.855,30.4,1
19542806,-0.183,-0.366,0.244,0.4034,0.0150,9.9665,27.854,30.4,1
19552806,-0.244,-0.305,0.244,0.3938,0.0090,9.9515,27.891,30.4,1
19562808,-0.305,-0.427,0.305,0.4022,0.0323,9.9545,27.877,30.4,1
19572816,-0.183,-0.305,0.244,0.3873,0.0114,9.9461,27.902,30.4,1
19582827,-0.183,-0.305,0.305,0.4046,0.0036,9.9515,27.910,30.4,1
19592827,-0.244,-0.305,0.305,0.3986,0.0174,9.9790,27.854,30.4,1
19602836,-0.244,-0.305,0.244,0.4034,0.0186,9.9856,27.883,30.4,1
19612846,-0.183,-0.366,0.244,0.4142,0.0263,9.9844,27.863,30.4,1
19622852,-0.183,-0.366,0.244,0.4112,0.0138,9.9515,27.904,30.4,1
19632857,-0.183,-0.305,0.305,0.4118,0.0221,9.9545,27.900,30.4,1
19642859,-0.183,-0.305,0.244,0.3956,0.0186,9.9665,27.875,30.4,1
19652871,-0.183,-0.305,0.122,0.4064,0.0078,9.9539,27.881,30.4,1
19662871,-0.183,-0.305,0.244,0.4046,-0.0156,9.9503,27.906,30.4,1
19672885,-0.122,-0.366,0.244,0.4226,0.0323,9.9473,27.906,30.4,1
19682900,-0.244,-0.427,0.305,0.3974,0.0395,9.9748,27.879,30.4,1
19692900,-0.183,-0.366,0.244,0.3962,0.0162,9.9659,27.918,30.4,1
19702900,-0.183,-0.427,0.244,0.4238,0.0377,9.9683,27.879,30.4,1
19712900,-0.183,-0.427,0.244,0.4148,0.0233,9.9503,27.883,30.4,1
19722900,-0.122,-0.244,0.244,0.4094,0.0174,9.9341,27.844,30.4,1
19732903,-0.122,-0.305,0.305,0.4160,0.0030,9.9485,27.885,30.4,1
19742913,-0.183,-0.305,0.305,0.4058,0.0000,9.9754,27.914,30.4,1
19752915,-0.244,-0.427,0.244,0.4076,0.0102,9.9605,27.896,30.4,1
19762928,-0.183,-0.427,0.244,0.3962,0.0144,9.9377,27.900,30.4,1
19772930,-0.122,-0.244,0.244,0.3723,0.0204,9.9569,27.865,30.4,1
19782943,-0.244,-0.366,0.183,0.4130,0.0078,9.9617,27.902,30.4,1
19792956,-0.183,-0.366,0.183,0.4178,0.0030,9.9527,27.846,30.4,1
19802961,-0.122,-0.427,0.183,0.4040,0.0138,9.9581,27.854,30.4,1
19812968,-0.122,-0.427,0.183,0.4028,0.0180,9.9557,27.867,30.4,1
19822974,-0.122,-0.244,0.244,0.4046,0.0335,9.9629,27.832,30.4,1
19832988,-0.183,-0.305,0.305,0.4142,0.0114,9.9683,27.941,30.4,1
19842996,-0.244,-0.427,0.366,0.3992,0.0012,9.9539,27.887,30.4,1
19853003,-0.244,-0.488,0.244,0.4100,0.0341,9.9449,27.934,30.4,1
19863011,-0.183,-0.244,0.244,0.4256,0.0150,9.9677,27.900,30.4,1
19873011,-0.244,-0.305,0.244,0.4070,0.0066,9.9641,27.900,30.4,1
19883024,-0.244,-0.366,0.244,0.4154,0.0048,9.9629,27.896,30.4,1
19893034,-0.183,-0.366,0.305,0.4160,0.0096,9.9677,27.881,30.4,1
19903045,-0.305,-0.488,0.244,0.4004,0.0156,9.9719,27.885,30.4,1
19913054,-0.244,-0.366,0.244,0.3843,0.0036,9.9581,27.850,30.4,1
19923057,-0.183,-0.244,0.305,0.3956,0.0150,9.9772,27.867,30.4,1
19933060,-0.183,-0.305,0.244,0.4184,0.0209,9.9748,27.848,30.4,1
19943072,-0.183,-0.366,0.244,0.4094,0.0108,9.9581,27.904,30.4,1
19953076,-0.244,-0.244,0.305,0.4106,0.0174,9.9294,27.908,30.4,1
19963087,-0.244,-0.305,0.305,0.3986,0.0269,9.9587,27.895,30.4,1
19973087,-0.122,-0.427,0.244,0.4100,0.0233,9.9575,27.898,30.4,1
19983087,-0.122,-0.366,0.244,0.4058,0.0114,9.9533,27.895,30.4,1
19993087,-0.244,-0.305,0.244,0.4076,0.0084,9.9742,27.898,30.4,1
20003087,-0.244,-0.366,0.305,0.4202,0.0233,9.9521,27.902,30.4,1
20013090,-0.244,-0.305,0.244,0.4052,0.0353,9.9527,27.846,30.4,1
20023092,-0.183,-0.366,0.244,0.4058,0.0221,9.9742,27.928,30.4,1
20033106,-0.183,-0.427,0.305,0.4142,0.0335,9.9491,27.912,30.4,1
20043116,-0.183,-0.366,0.366,0.4208,0.0114,9.9485,27.869,30.4,1
20053120,-0.122,-0.366,0.305,0.4094,0.0108,9.9605,27.850,30.4,1
20063125,-0.122,-0.366,0.305,0.4100,0.0281,9.9635,27.895,30.4,1
20073137,-0.183,-0.366,0.244,0.3879,0.0311,9.9473,27.895,30.4,1
20083137,-0.244,-0.427,0.183,0.3903,0.0162,9.9719,27.855,30.4,1
20093148,-0.061,-0.366,0.244,0.4034,0.0209,9.9730,27.912,30.4,1
20103162,-0.122,-0.305,0.244,0.4052,0.0102,9.9665,27.896,30.4,1
