TimeUs,GyroX_dps,GyroY_dps,GyroZ_dps,AccelX_mps2,AccelY_mps2,AccelZ_mps2,ImuTempC,EspTempC,Status
1286959,-0.793,0.610,0.549,0.0072,-0.6985,9.9832,28.486,28.3,1
1296963,-0.976,0.549,0.427,-0.0257,-0.7254,9.9964,28.523,28.3,1
1306965,-0.793,0.427,0.305,-0.0138,-0.7123,9.9844,28.416,28.3,1
1316968,-0.732,0.427,0.366,0.0371,-0.7165,9.9874,28.562,28.3,1
1326979,-0.610,0.427,0.488,0.0658,-0.7314,9.9641,28.500,28.3,1
1336991,-0.610,0.366,0.610,0.0233,-0.7326,9.9808,28.488,28.3,1
1346999,-0.488,0.488,0.549,-0.0012,-0.7063,9.9838,28.480,28.3,1
1357013,-0.427,0.549,0.488,0.0018,-0.7111,9.9808,28.523,28.3,1
1367018,-0.488,0.488,0.549,0.0269,-0.7087,9.9701,28.455,28.3,1
1377022,-0.610,0.427,0.610,0.0317,-0.7278,9.9748,28.523,28.3,1
1387024,-0.549,0.488,0.549,-0.0126,-0.7111,9.9958,28.521,28.3,1
1397026,-0.549,0.549,0.549,0.0108,-0.7075,9.9964,28.508,28.3,1
1407037,-0.671,0.427,0.549,0.0138,-0.7081,10.0036,28.539,28.3,1
1417045,-0.732,0.427,0.488,-0.0030,-0.7147,9.9814,28.463,28.3,1
1427052,-0.793,0.488,0.427,0.0180,-0.7165,9.9946,28.502,28.3,1
1437056,-0.976,0.427,0.427,0.0054,-0.7009,9.9970,28.559,28.3,1
1447070,-1.037,0.427,0.305,-0.0102,-0.6997,9.9856,28.500,28.3,1
1457080,-1.098,0.488,0.183,0.0156,-0.7123,9.9754,28.500,28.3,1
1467080,-1.098,0.488,0.183,0.0096,-0.7368,9.9814,28.504,28.3,1
1477083,-0.976,0.366,0.305,0.0353,-0.7326,9.9958,28.525,28.3,1
1487086,-0.793,0.488,0.427,0.0281,-0.7093,9.9772,28.535,28.3,1
1497087,-0.671,0.488,0.549,0.0347,-0.7350,9.9629,28.523,28.3,1
1507095,-0.610,0.427,0.488,0.0269,-0.7308,9.9724,28.508,28.3,1
1517110,-0.610,0.488,0.488,0.0245,-0.6907,9.9784,28.529,28.3,1
1527125,-0.793,0.427,0.488,0.0096,-0.7123,9.9850,28.545,28.3,1
1537137,-0.915,0.549,0.366,-0.0078,-0.7135,9.9838,28.527,28.3,1
1547137,-1.037,0.488,0.305,0.0156,-0.7356,9.9850,28.566,28.3,1
1557149,-1.037,0.427,0.305,0.0251,-0.7236,9.9515,28.547,28.3,1
1567156,-0.915,0.488,0.305,0.0162,-0.7195,9.9653,28.514,28.3,1
1577164,-0.915,0.488,0.305,0.0084,-0.7069,9.9994,28.547,28.3,1
1587168,-0.793,0.427,0.366,0.0054,-0.7171,9.9922,28.541,28.3,1
1597177,-0.793,0.427,0.488,0.0299,-0.7278,9.9952,28.500,28.3,1
1607183,-0.732,0.427,0.488,0.0401,-0.7350,9.9724,28.535,28.3,1
1617194,-0.793,0.488,0.427,0.0287,-0.7183,9.9802,28.533,28.3,1
1627195,-0.732,0.427,0.366,-0.0072,-0.7368,9.9790,28.533,28.3,1
1637199,-0.732,0.366,0.366,0.0233,-0.7248,9.9868,28.535,28.3,1
1647212,-0.610,0.488,0.427,0.0335,-0.7338,9.9910,28.516,28.3,1
1657212,-0.549,0.488,0.488,0.0192,-0.7284,9.9982,28.527,28.3,1
1667213,-0.671,0.427,0.549,0.0299,-0.7242,9.9832,28.535,28.3,1
1677222,-0.732,0.427,0.488,0.0072,-0.7272,9.9742,28.541,28.3,1
1687228,-0.732,0.427,0.488,0.0186,-0.7177,9.9898,28.551,28.3,1
1697242,-0.915,0.427,0.427,0.0293,-0.7153,9.9892,28.557,28.3,1
1707255,-0.854,0.366,0.427,0.0209,-0.7177,10.0012,28.555,28.3,1
1717257,-0.793,0.427,0.488,0.0341,-0.7027,9.9671,28.547,28.3,1
1727268,-0.671,0.427,0.549,0.0425,-0.7278,9.9880,28.566,28.3,1
1737277,-0.671,0.366,0.488,-0.0030,-0.7117,9.9844,28.561,28.3,1
1747289,-0.854,0.366,0.427,-0.0186,-0.7069,9.9742,28.537,28.3,1
1757290,-0.915,0.427,0.366,-0.0186,-0.7141,10.0024,28.568,28.3,1
1767303,-0.976,0.427,0.305,0.0227,-0.7153,9.9946,28.547,28.3,1
1777303,-0.915,0.488,0.366,0.0461,-0.7272,9.9766,28.543,28.3,1
1787308,-0.854,0.427,0.427,0.0204,-0.7129,9.9814,28.521,28.3,1
1797316,-0.732,0.427,0.488,-0.0132,-0.7081,9.9940,28.521,28.3,1
1807316,-0.732,0.427,0.488,0.0078,-0.7153,9.9880,28.590,28.3,1
1817323,-0.671,0.488,0.427,-0.0120,-0.7087,9.9736,28.613,28.3,1
1827323,-0.671,0.488,0.366,0.0281,-0.6973,9.9724,28.518,28.3,1
1837332,-0.671,0.488,0.427,0.0126,-0.7236,9.9760,28.553,28.3,1
1847336,-0.732,0.488,0.488,0.0168,-0.7248,9.9976,28.525,28.3,1
1857336,-0.854,0.488,0.488,0.0066,-0.7392,9.9898,28.533,28.3,1
1867346,-0.915,0.427,0.427,0.0156,-0.7308,9.9766,28.586,28.3,1
1877359,-0.976,0.366,0.305,0.0090,-0.7386,9.9988,28.553,28.3,1
1887362,-0.915,0.427,0.305,0.0150,-0.7248,9.9814,28.588,28.3,1
1897366,-0.915,0.427,0.366,0.0066,-0.7153,9.9748,28.609,28.3,1
1907379,-0.976,0.427,0.305,0.0072,-0.7266,9.9838,28.572,28.3,1
1917384,-0.915,0.427,0.305,0.0198,-0.7177,10.0114,28.586,28.3,1
1927394,-0.915,0.366,0.366,0.0168,-0.7308,9.9892,28.543,28.3,1
1937395,-0.793,0.366,0.366,0.0018,-0.7350,9.9880,28.586,28.3,1
1947399,-0.732,0.427,0.427,0.0305,-0.7302,9.9814,28.574,28.3,1
1957407,-0.732,0.488,0.488,0.0359,-0.7344,9.9832,28.594,28.3,1
1967420,-0.488,0.427,0.671,0.0006,-0.7129,9.9611,28.594,28.3,1
1977426,-0.549,0.427,0.549,-0.0174,-0.6841,9.9898,28.547,28.3,1
1987441,-0.915,0.427,0.244,-0.0108,-0.7685,9.9988,28.592,28.3,1
1997451,-0.671,0.427,0.427,0.0126,-0.7201,10.0078,28.588,28.3,1
2007457,-0.732,0.488,0.610,0.0467,-0.6919,9.9844,28.566,28.3,1
2017466,-0.976,0.427,0.427,0.0114,-0.7093,9.9844,28.557,28.3,1
2027475,-0.854,0.427,0.305,0.0012,-0.7278,9.9898,28.557,28.3,1
2037487,-0.732,0.488,0.366,0.0263,-0.7195,9.9796,28.543,28.3,1
2047496,-0.671,0.427,0.488,0.0479,-0.7230,9.9952,28.543,28.3,1
2057503,-0.732,0.488,0.549,0.0353,-0.7266,9.9808,28.627,28.3,1
2067503,-0.610,0.488,0.488,0.0102,-0.7057,9.9742,28.555,28.3,1
2077514,-0.671,0.427,0.427,-0.0030,-0.7386,9.9928,28.568,28.3,1
2087521,-0.671,0.488,0.610,0.0215,-0.7165,9.9850,28.609,28.3,1
2097533,-0.488,0.488,0.549,0.0599,-0.7278,9.9910,28.568,28.3,1
2107545,-0.549,0.427,0.671,-0.0006,-0.6710,9.9958,28.619,28.3,1
2117549,-1.280,0.427,0.183,-0.0539,-0.6967,9.9623,28.604,28.3,1
2127562,-1.037,0.488,0.061,0.0120,-0.7620,10.0054,28.547,28.3,1
2137572,-0.488,0.427,0.488,0.0994,-0.7045,9.9862,28.547,28.3,1
2147582,-0.549,0.488,0.671,0.0904,-0.7823,9.9832,28.580,28.3,1
2157588,-0.244,0.427,0.793,0.0084,-0.6847,9.9868,28.609,28.3,1
2167597,-0.488,0.549,0.732,-0.0311,-0.7045,9.9886,28.604,28.3,1
2177608,-0.671,0.549,0.610,-0.0042,-0.6548,9.9695,28.592,28.3,1
2187615,-0.976,0.488,0.305,-0.0150,-0.7111,9.9683,28.572,28.3,1
2197624,-0.793,0.427,0.305,0.0174,-0.7236,9.9653,28.596,28.3,1
2207628,-0.671,0.488,0.427,0.0599,-0.7045,9.9964,28.586,28.3,1
2217642,-0.854,0.488,0.488,0.0371,-0.7195,9.9880,28.582,28.3,1
2227644,-0.793,0.427,0.549,-0.0126,-0.6931,9.9886,28.615,28.3,1
2237644,-0.793,0.488,0.427,-0.0168,-0.7290,10.0078,28.607,28.3,1
2247656,-0.793,0.427,0.427,0.0371,-0.7159,9.9880,28.578,28.3,1
2257661,-0.793,0.488,0.427,0.0449,-0.7093,10.0006,28.562,28.3,1
2267661,-0.671,0.488,0.427,0.0156,-0.7177,10.0000,28.598,28.3,1
2277663,-0.732,0.488,0.488,0.0102,-0.7236,9.9904,28.598,29.3,1
2287676,-0.793,0.427,0.488,0.0006,-0.7111,10.0167,28.572,28.3,1
2297687,-0.793,0.488,0.427,0.0275,-0.7063,9.9970,28.588,28.3,1
2307694,-0.793,0.610,0.427,0.0377,-0.7356,9.9844,28.588,28.3,1
2317706,-0.671,0.427,0.488,0.0275,-0.7320,9.9826,28.561,28.3,1
2327720,-0.732,0.427,0.427,0.0144,-0.7230,9.9934,28.623,28.3,1
2337721,-0.854,0.427,0.366,0.0138,-0.7248,9.9886,28.613,28.3,1
2347729,-0.793,0.366,0.488,0.0215,-0.7207,9.9898,28.592,28.3,1
2357730,-0.793,0.427,0.488,0.0293,-0.7111,9.9976,28.584,28.3,1
2367736,-0.793,0.488,0.488,0.0192,-0.7045,9.9796,28.576,28.3,1
2377736,-0.732,0.488,0.488,0.0030,-0.7219,9.9611,28.557,28.3,1
2387740,-0.671,0.488,0.488,0.0132,-0.7081,9.9713,28.602,28.3,1
2397748,-0.732,0.427,0.488,0.0186,-0.7201,9.9874,28.633,28.3,1
2407748,-0.854,0.366,0.427,0.0287,-0.7207,9.9886,28.592,28.3,1
2417748,-0.732,0.488,0.427,0.0090,-0.7296,9.9766,28.639,28.3,1
2427755,-0.732,0.488,0.366,0.0054,-0.7111,9.9904,28.623,28.3,1
2437755,-0.793,0.427,0.366,0.0114,-0.7177,9.9910,28.605,28.3,1
2447763,-0.732,0.488,0.366,0.0251,-0.7057,9.9904,28.586,28.3,1
2457767,-0.793,0.488,0.488,0.0012,-0.7230,9.9982,28.627,28.3,1
2467778,-0.732,0.427,0.427,0.0126,-0.7350,10.0018,28.600,28.3,1
2477778,-0.793,0.427,0.427,0.0317,-0.7081,9.9784,28.600,28.3,1
2487778,-0.671,0.427,0.366,0.0186,-0.7141,9.9946,28.586,28.3,1
2497783,-0.671,0.488,0.366,0.0096,-0.7284,9.9856,28.631,28.3,1
2507796,-0.793,0.427,0.427,-0.0012,-0.7177,9.9862,28.635,28.3,1
2517796,-0.793,0.427,0.427,0.0138,-0.7296,9.9820,28.578,28.3,1
2527797,-0.915,0.427,0.427,-0.0042,-0.7207,9.9814,28.590,28.3,1
2537807,-0.854,0.488,0.549,-0.0012,-0.7003,9.9988,28.658,28.3,1
2547821,-0.732,0.488,0.549,0.0072,-0.6991,10.0054,28.621,28.3,1
2557828,-0.793,0.366,0.366,-0.0048,-0.7284,10.0048,28.609,28.3,1
2567839,-0.732,0.366,0.427,0.0054,-0.7123,9.9958,28.619,28.3,1
2577852,-0.732,0.366,0.488,0.0072,-0.6973,9.9940,28.631,28.3,1
2587859,-0.732,0.488,0.488,0.0180,-0.7284,9.9934,28.588,28.3,1
2597870,-0.854,0.488,0.488,0.0090,-0.7230,9.9766,28.658,28.3,1
2607873,-0.793,0.427,0.488,0.0269,-0.7207,9.9772,28.621,28.3,1
2617885,-0.854,0.427,0.488,0.0305,-0.7063,9.9856,28.617,28.3,1
2627892,-0.854,0.427,0.488,0.0233,-0.7135,10.0149,28.582,28.3,1
2637892,-0.854,0.488,0.305,0.0030,-0.7165,9.9838,28.596,28.3,1
2647905,-0.793,0.488,0.427,0.0138,-0.7171,9.9928,28.596,29.3,1
2657919,-0.793,0.427,0.427,0.0156,-0.7135,9.9988,28.633,28.3,1
2667919,-0.854,0.427,0.427,0.0006,-0.7183,9.9880,28.619,28.3,1
2677933,-0.854,0.427,0.488,0.0180,-0.7422,9.9760,28.623,28.3,1
2687942,-0.793,0.427,0.488,0.0174,-0.7416,9.9808,28.635,28.3,1
2697946,-0.732,0.427,0.488,0.0042,-0.7344,10.0048,28.602,28.3,1
2707959,-0.671,0.427,0.427,0.0144,-0.7242,9.9880,28.619,28.3,1
2717965,-0.732,0.427,0.366,0.0096,-0.7171,9.9635,28.604,28.3,1
2727976,-0.793,0.427,0.488,0.0084,-0.7111,9.9922,28.609,28.3,1
2737976,-0.854,0.427,0.488,0.0257,-0.7272,9.9934,28.613,28.3,1
2747981,-0.854,0.427,0.427,0.0311,-0.7069,9.9665,28.588,28.3,1
2757984,-0.732,0.427,0.427,0.0233,-0.7248,9.9724,28.586,28.3,1
2767994,-0.732,0.488,0.427,0.0108,-0.7141,9.9928,28.619,29.3,1
2777995,-0.671,0.427,0.488,0.0353,-0.7177,9.9928,28.629,28.3,1
2787999,-0.671,0.427,0.488,0.0144,-0.7069,9.9862,28.584,28.3,1
2798009,-0.793,0.366,0.427,0.0150,-0.7099,10.0012,28.670,28.3,1
2808010,-0.793,0.366,0.427,0.0198,-0.7081,9.9850,28.635,28.3,1
2818018,-0.732,0.427,0.488,0.0108,-0.7117,9.9772,28.635,28.3,1
2828020,-0.793,0.366,0.488,0.0036,-0.7266,9.9952,28.605,28.3,1
2838026,-0.793,0.366,0.488,0.0126,-0.7230,9.9778,28.648,28.3,1
2848035,-0.854,0.488,0.427,-0.0030,-0.7105,10.0000,28.596,28.3,1
2858045,-0.610,0.427,0.366,0.0341,-0.7308,10.0036,28.641,28.3,1
2868056,-0.732,0.427,0.427,0.0323,-0.7284,9.9826,28.654,28.3,1
2878068,-0.854,0.488,0.427,0.0084,-0.7207,9.9772,28.629,29.3,1
2888068,-0.732,0.427,0.427,0.0054,-0.7195,9.9982,28.598,28.3,1
2898080,-0.732,0.427,0.427,0.0078,-0.7183,9.9814,28.613,28.3,1
2908085,-0.732,0.427,0.427,0.0114,-0.7147,9.9904,28.586,28.3,1
2918095,-0.854,0.427,0.488,0.0060,-0.7171,9.9964,28.639,28.3,1
2928107,-0.732,0.549,0.488,0.0090,-0.7266,9.9862,28.648,28.3,1
2938116,-0.610,0.488,0.427,-0.0048,-0.7183,10.0036,28.637,28.3,1
2948118,-0.793,0.427,0.366,0.0066,-0.7236,10.0078,28.639,28.3,1
2958120,-0.732,0.488,0.427,0.0096,-0.7201,9.9677,28.637,28.3,1
2968133,-0.793,0.427,0.488,0.0102,-0.7195,10.0012,28.615,28.3,1
2978146,-0.671,0.366,0.488,0.0299,-0.7278,9.9832,28.588,28.3,1
2988146,-0.610,0.488,0.427,0.0132,-0.7159,9.9742,28.588,28.3,1
2998151,-0.793,0.366,0.366,0.0180,-0.6985,9.9928,28.643,28.3,1
3008164,-0.793,0.488,0.427,0.0006,-0.7230,9.9964,28.625,28.3,1
3018164,-0.732,0.427,0.427,0.0186,-0.7326,9.9766,28.631,28.3,1
3028177,-0.793,0.427,0.305,0.0209,-0.7314,9.9790,28.617,28.3,1
3038182,-0.793,0.488,0.427,0.0018,-0.7201,9.9946,28.625,28.3,1
3048195,-0.732,0.366,0.488,0.0090,-0.7225,9.9892,28.619,28.3,1
3058209,-0.732,0.305,0.488,-0.0054,-0.7177,10.0096,28.637,28.3,1
3068212,-0.732,0.427,0.488,0.0293,-0.7219,9.9814,28.650,28.3,1
3078225,-0.915,0.488,0.427,0.0263,-0.7189,9.9982,28.627,28.3,1
3088227,-0.915,0.488,0.427,0.0156,-0.7027,9.9850,28.635,28.3,1
3098236,-0.732,0.488,0.427,0.0215,-0.7147,9.9850,28.664,28.3,1
3108245,-0.793,0.427,0.427,0.0024,-0.7254,9.9946,28.645,28.3,1
3118253,-0.732,0.427,0.427,-0.0114,-0.7356,9.9958,28.641,28.3,1
3128253,-0.732,0.488,0.488,0.0078,-0.7326,10.0066,28.635,28.3,1
3138260,-0.793,0.427,0.488,0.0227,-0.7230,9.9916,28.629,29.3,1
3148262,-0.732,0.427,0.488,0.0072,-0.7302,9.9850,28.639,29.3,1
3158268,-0.793,0.366,0.427,-0.0042,-0.7183,9.9808,28.639,29.3,1
3168275,-0.854,0.427,0.488,0.0150,-0.7242,9.9695,28.682,29.3,1
3178277,-0.793,0.488,0.488,0.0251,-0.7159,9.9754,28.613,28.3,1
3188286,-0.732,0.427,0.427,0.0078,-0.7230,9.9874,28.645,28.3,1
3198286,-0.793,0.427,0.427,0.0054,-0.7236,10.0018,28.645,28.3,1
3208298,-0.671,0.427,0.427,0.0156,-0.7117,9.9934,28.645,28.3,1
3218298,-0.793,0.488,0.366,0.0144,-0.7266,9.9970,28.623,28.3,1
3228303,-0.854,0.549,0.427,0.0162,-0.7242,9.9916,28.652,28.3,1
3238305,-0.793,0.488,0.366,0.0066,-0.7075,9.9766,28.613,28.3,1
3248316,-0.671,0.427,0.366,0.0066,-0.7242,10.0006,28.650,29.3,1
3258329,-0.732,0.427,0.427,0.0132,-0.7159,9.9988,28.637,28.3,1
3268331,-0.854,0.427,0.427,0.0186,-0.7248,10.0078,28.641,28.3,1
3278338,-0.732,0.488,0.488,0.0162,-0.7171,9.9802,28.652,28.3,1
3288354,-0.732,0.549,0.488,0.0186,-0.7242,9.9952,28.662,29.3,1
3298362,-0.854,0.549,0.488,0.0198,-0.7123,9.9898,28.625,29.3,1
3308364,-0.854,0.427,0.427,0.0120,-0.7356,9.9856,28.631,29.3,1
3318374,-0.854,0.427,0.305,0.0078,-0.7219,10.0012,28.660,29.3,1
3328377,-0.854,0.366,0.366,0.0084,-0.7105,9.9940,28.660,28.3,1
3338377,-0.793,0.427,0.427,0.0084,-0.7033,9.9892,28.623,28.3,1
3348377,-0.854,0.427,0.427,0.0180,-0.7183,10.0006,28.658,28.3,1
3358390,-0.793,0.488,0.488,0.0180,-0.7284,10.0096,28.617,28.3,1
3368392,-0.793,0.427,0.488,0.0365,-0.7236,9.9970,28.652,29.3,1
3378397,-0.793,0.366,0.549,0.0257,-0.7236,9.9748,28.662,28.3,1
3388410,-0.732,0.427,0.427,0.0299,-0.7225,9.9928,28.615,28.3,1
3398419,-0.732,0.549,0.366,0.0263,-0.7171,9.9850,28.635,29.3,1
3408426,-0.793,0.427,0.488,0.0215,-0.7242,9.9808,28.639,29.3,1
3418427,-0.732,0.366,0.427,0.0036,-0.7189,10.0161,28.617,28.3,1
3428442,-0.671,0.427,0.366,0.0030,-0.7225,10.0042,28.623,28.3,1
3438453,-0.610,0.427,0.427,0.0084,-0.7183,10.0018,28.695,29.3,1
3448453,-0.793,0.488,0.427,0.0090,-0.7177,9.9940,28.650,29.3,1
3458455,-0.793,0.488,0.549,0.0186,-0.7219,9.9910,28.707,29.3,1
3468464,-0.732,0.549,0.488,0.0096,-0.7159,9.9874,28.645,28.3,1
3478469,-0.732,0.549,0.488,0.0215,-0.7326,10.0012,28.629,28.3,1
3488473,-0.732,0.488,0.427,0.0449,-0.7189,10.0161,28.639,29.3,1
3498481,-0.732,0.427,0.366,0.0126,-0.7105,9.9940,28.639,29.3,1
3508490,-0.793,0.427,0.488,0.0072,-0.7201,9.9916,28.676,29.3,1
3518490,-0.732,0.305,0.488,0.0281,-0.7225,10.0018,28.680,29.3,1
3528501,-0.793,0.366,0.488,0.0257,-0.7248,10.0108,28.662,28.3,1
3538501,-0.732,0.366,0.488,0.0269,-0.7368,9.9988,28.617,29.3,1
3548514,-0.732,0.427,0.366,0.0275,-0.7302,9.9958,28.674,28.3,1
3558514,-0.732,0.427,0.427,0.0233,-0.7153,9.9946,28.639,29.3,1
3568516,-0.793,0.366,0.427,0.0257,-0.7320,9.9976,28.619,28.3,1
3578516,-0.793,0.427,0.488,0.0281,-0.7123,10.0096,28.695,28.3,1
3588527,-0.793,0.488,0.488,0.0096,-0.7183,9.9970,28.633,29.3,1
3598536,-0.793,0.427,0.427,0.0066,-0.7254,10.0108,28.654,28.3,1
3608547,-0.732,0.427,0.427,0.0066,-0.7278,10.0054,28.645,28.3,1
3618557,-0.793,0.488,0.366,0.0006,-0.7141,9.9844,28.664,28.3,1
3628560,-0.732,0.427,0.427,-0.0060,-0.7201,9.9814,28.596,29.3,1
3638563,-0.732,0.427,0.488,0.0245,-0.7302,9.9904,28.660,28.3,1
3648577,-0.793,0.488,0.427,0.0192,-0.7278,10.0120,28.617,29.3,1
3658590,-0.671,0.427,0.427,0.0138,-0.7213,9.9772,28.682,29.3,1
3668603,-0.671,0.427,0.488,0.0221,-0.7135,9.9814,28.682,28.3,1
3678608,-0.732,0.488,0.427,0.0114,-0.7230,10.0078,28.703,29.3,1
3688618,-0.732,0.488,0.427,0.0239,-0.7147,10.0102,28.662,29.3,1
3698626,-0.732,0.488,0.427,0.0341,-0.7183,9.9982,28.633,29.3,1
3708634,-0.793,0.427,0.427,0.0192,-0.7272,9.9964,28.666,29.3,1
3718641,-0.793,0.427,0.488,0.0150,-0.7278,9.9707,28.656,29.3,1
3728641,-0.732,0.488,0.427,0.0042,-0.7278,9.9832,28.633,29.3,1
3738654,-0.732,0.488,0.488,0.0066,-0.7266,9.9982,28.662,28.3,1
3748656,-0.671,0.366,0.488,0.0293,-0.7350,10.0143,28.639,28.3,1
3758656,-0.793,0.427,0.427,0.0060,-0.7236,10.0132,28.658,29.3,1
3768657,-0.854,0.488,0.366,0.0006,-0.7111,9.9904,28.639,29.3,1
3778660,-0.671,0.427,0.427,0.0317,-0.7266,9.9874,28.650,28.3,1
3788675,-0.671,0.427,0.427,0.0162,-0.7284,10.0161,28.662,29.3,1
3798687,-0.671,0.427,0.366,0.0174,-0.7416,9.9994,28.615,28.3,1
3808689,-0.671,0.366,0.427,0.0275,-0.7230,9.9808,28.658,29.3,1
3818691,-0.793,0.488,0.427,0.0090,-0.7183,9.9922,28.662,29.3,1
3828695,-0.854,0.488,0.427,0.0132,-0.7075,10.0042,28.600,28.3,1
3838702,-0.732,0.427,0.488,0.0144,-0.7081,10.0161,28.600,29.3,1
3848710,-0.732,0.427,0.488,-0.0048,-0.7189,9.9964,28.682,29.3,1
3858721,-0.854,0.427,0.488,0.0012,-0.7153,10.0060,28.662,29.3,1
3868730,-0.793,0.427,0.427,0.0263,-0.7219,10.0126,28.629,29.3,1
3878730,-0.793,0.427,0.427,0.0144,-0.7171,9.9946,28.625,29.3,1
3888733,-0.793,0.427,0.427,0.0162,-0.7165,9.9790,28.646,29.3,1
3898740,-0.732,0.488,0.427,0.0305,-0.6943,9.9964,28.633,28.3,1
3908752,-0.732,0.427,0.488,0.0096,-0.7057,9.9760,28.680,28.3,1
3918755,-0.732,0.427,0.427,0.0215,-0.7290,9.9940,28.668,29.3,1
3928763,-0.793,0.427,0.427,0.0275,-0.7213,9.9988,28.688,28.3,1
3938766,-0.793,0.488,0.366,0.0156,-0.7159,9.9862,28.666,29.3,1
3948767,-0.732,0.427,0.427,0.0341,-0.7242,10.0108,28.654,28.3,1
3958781,-0.732,0.427,0.488,0.0281,-0.7248,10.0060,28.705,29.3,1
3968794,-0.793,0.427,0.427,-0.0006,-0.7225,10.0287,28.654,28.3,1
3978809,-0.854,0.427,0.366,0.0120,-0.7338,10.0173,28.656,28.3,1
3988821,-0.793,0.549,0.427,0.0275,-0.7404,9.9964,28.682,29.3,1
3998826,-0.732,0.427,0.427,0.0000,-0.7207,10.0078,28.643,29.3,1
4008832,-0.793,0.427,0.488,0.0162,-0.7141,9.9820,28.643,28.3,1
4018832,-0.854,0.427,0.488,0.0341,-0.7099,9.9742,28.654,29.3,1
4028832,-0.793,0.427,0.488,0.0174,-0.7236,9.9892,28.621,29.3,1
4038836,-0.854,0.427,0.427,0.0120,-0.7153,9.9880,28.615,29.3,1
4048839,-0.854,0.427,0.366,0.0251,-0.7021,10.0066,28.658,29.3,1
4058847,-0.732,0.427,0.488,-0.0006,-0.7177,9.9928,28.650,29.3,1
4068858,-0.793,0.488,0.366,-0.0006,-0.7278,10.0155,28.664,29.3,1
4078859,-0.854,0.427,0.427,0.0132,-0.7105,10.0024,28.676,29.3,1
4088873,-0.793,0.488,0.488,0.0036,-0.7248,9.9844,28.668,29.3,1
4098885,-0.793,0.488,0.488,0.0150,-0.7087,9.9838,28.619,29.3,1
4108889,-0.793,0.488,0.427,0.0299,-0.7177,9.9790,28.656,29.3,1
4118900,-0.732,0.366,0.427,0.0186,-0.7177,9.9976,28.656,29.3,1
4128913,-0.671,0.427,0.427,0.0072,-0.7105,9.9922,28.680,29.3,1
4138915,-0.732,0.427,0.366,-0.0018,-0.7147,10.0084,28.660,29.3,1
4148922,-0.915,0.366,0.427,0.0072,-0.7021,10.0143,28.600,29.3,1
4158930,-0.915,0.366,0.427,0.0227,-0.7105,10.0006,28.660,29.3,1
4168934,-0.732,0.366,0.488,0.0287,-0.6967,9.9934,28.650,29.3,1
4178946,-0.671,0.427,0.427,0.0186,-0.7045,9.9952,28.650,29.3,1
4188953,-0.671,0.488,0.427,0.0174,-0.7087,9.9910,28.666,29.3,1
4198961,-0.732,0.366,0.427,-0.0066,-0.7057,9.9880,28.639,29.3,1
4208961,-0.793,0.427,0.427,0.0174,-0.7153,9.9952,28.650,29.3,1
4218968,-0.732,0.488,0.427,0.0108,-0.7225,9.9934,28.613,29.3,1
4228976,-0.793,0.366,0.427,0.0180,-0.7165,9.9784,28.648,29.3,1
4238976,-0.854,0.427,0.366,-0.0006,-0.7290,9.9772,28.652,29.3,1
4248989,-0.793,0.427,0.549,0.0275,-0.7236,10.0072,28.703,29.3,1
4258989,-0.671,0.488,0.488,0.0221,-0.7201,9.9796,28.670,29.3,1
4268996,-0.793,0.488,0.488,0.0120,-0.7087,9.9796,28.602,29.3,1
4279007,-0.732,0.488,0.305,0.0144,-0.7189,10.0006,28.637,29.3,1
4289011,-0.732,0.427,0.427,0.0180,-0.7147,9.9910,28.654,29.3,1
4299020,-0.793,0.366,0.488,0.0162,-0.7260,9.9802,28.658,29.3,1
4309022,-0.793,0.488,0.427,0.0066,-0.7236,9.9922,28.650,29.3,1
4319029,-0.732,0.427,0.427,0.0192,-0.7039,10.0072,28.674,28.3,1
4329029,-0.732,0.366,0.488,0.0120,-0.7260,10.0018,28.678,29.3,1
4339035,-0.610,0.427,0.488,0.0198,-0.7278,9.9736,28.629,29.3,1
4349037,-0.732,0.488,0.488,0.0018,-0.7248,9.9952,28.629,29.3,1
4359045,-0.793,0.488,0.427,0.0030,-0.7075,10.0006,28.674,29.3,1
4369056,-0.732,0.427,0.366,0.0072,-0.7260,9.9808,28.652,29.3,1
4379064,-0.732,0.427,0.427,0.0245,-0.7057,9.9940,28.668,29.3,1
4389065,-0.732,0.305,0.488,-0.0048,-0.6967,10.0173,28.660,29.3,1
4399075,-0.793,0.366,0.366,-0.0018,-0.7236,9.9892,28.639,29.3,1
4409080,-0.732,0.427,0.366,0.0162,-0.7213,9.9802,28.652,29.3,1
4419083,-0.793,0.366,0.427,0.0192,-0.7123,9.9952,28.658,29.3,1
4429087,-0.793,0.427,0.488,0.0012,-0.7051,10.0012,28.656,29.3,1
4439090,-0.732,0.427,0.366,0.0156,-0.7069,10.0006,28.639,29.3,1
4449090,-0.793,0.427,0.366,0.0162,-0.7230,9.9964,28.672,29.3,1
4459103,-0.732,0.549,0.427,0.0150,-0.7374,9.9898,28.635,29.3,1
4469105,-0.732,0.488,0.427,0.0401,-0.7177,9.9862,28.689,29.3,1
4479109,-0.793,0.427,0.488,0.0287,-0.7225,9.9964,28.697,29.3,1
4489122,-0.732,0.427,0.549,0.0293,-0.7177,9.9707,28.732,29.3,1
4499134,-0.610,0.366,0.488,0.0371,-0.7117,10.0006,28.627,29.3,1
4509137,-0.732,0.488,0.366,0.0072,-0.7195,9.9976,28.650,29.3,1
4519148,-0.732,0.366,0.427,-0.0132,-0.6931,9.9695,28.650,29.3,1
4529156,-0.793,0.427,0.366,0.0263,-0.7021,9.9916,28.605,29.3,1
4539156,-0.854,0.427,0.427,0.0353,-0.7135,9.9862,28.682,29.3,1
4549164,-0.793,0.427,0.427,0.0233,-0.7230,10.0006,28.658,29.3,1
4559164,-0.732,0.366,0.488,0.0108,-0.7057,10.0066,28.656,29.3,1
4569175,-0.671,0.366,0.488,-0.0006,-0.7105,9.9754,28.680,29.3,1
4579183,-0.732,0.427,0.549,-0.0030,-0.7069,9.9766,28.643,29.3,1
4589197,-0.793,0.488,0.427,0.0239,-0.7099,9.9754,28.633,29.3,1
4599197,-0.854,0.427,0.488,0.0114,-0.7368,9.9892,28.672,29.3,1
4609209,-0.793,0.488,0.427,0.0293,-0.7057,9.9736,28.682,29.3,1
4619209,-0.854,0.488,0.427,0.0168,-0.7105,9.9916,28.660,29.3,1
4629216,-0.793,0.488,0.488,0.0120,-0.7213,9.9910,28.684,29.3,1
4639216,-0.793,0.488,0.488,0.0174,-0.7368,10.0018,28.676,29.3,1
4649222,-0.732,0.366,0.488,0.0066,-0.7392,9.9898,28.662,28.3,1
4659227,-0.732,0.427,0.488,0.0305,-0.7230,9.9988,28.639,28.3,1
4669227,-0.793,0.427,0.427,0.0054,-0.7278,9.9994,28.637,29.3,1
4679237,-0.793,0.427,0.427,0.0096,-0.7272,10.0126,28.678,29.3,1
4689247,-0.732,0.366,0.427,0.0257,-0.7189,10.0132,28.678,29.3,1
4699247,-0.732,0.366,0.366,0.0245,-0.7135,10.0006,28.660,29.3,1
4709259,-0.854,0.488,0.427,0.0263,-0.7338,10.0078,28.729,28.3,1
4719271,-0.732,0.427,0.488,0.0084,-0.7219,9.9964,28.635,29.3,1
4729271,-0.732,0.427,0.427,0.0186,-0.7201,10.0006,28.688,29.3,1
4739277,-0.854,0.366,0.427,0.0054,-0.7033,10.0209,28.611,29.3,1
4749283,-0.793,0.427,0.427,0.0263,-0.7356,9.9934,28.682,29.3,1
4759288,-0.732,0.488,0.366,0.0245,-0.7338,9.9988,28.676,29.3,1
4769290,-0.732,0.488,0.427,0.0060,-0.7225,10.0167,28.646,29.3,1
4779301,-0.854,0.366,0.488,0.0293,-0.7230,10.0012,28.691,29.3,1
4789303,-0.854,0.366,0.488,0.0251,-0.7105,10.0006,28.648,29.3,1
4799303,-0.854,0.427,0.488,0.0365,-0.7230,10.0048,28.670,29.3,1
4809303,-0.793,0.427,0.366,0.0192,-0.7225,10.0072,28.664,29.3,1
4819303,-0.732,0.427,0.427,0.0084,-0.7201,10.0000,28.682,29.3,1
4829303,-0.793,0.427,0.488,0.0006,-0.7225,9.9856,28.670,29.3,1
4839306,-0.732,0.427,0.488,0.0030,-0.7105,10.0185,28.691,28.3,1
4849314,-0.793,0.427,0.366,0.0221,-0.7266,9.9916,28.691,29.3,1
4859318,-0.854,0.427,0.366,0.0186,-0.7063,9.9898,28.678,29.3,1
4869318,-0.793,0.488,0.427,0.0299,-0.7278,9.9922,28.650,29.3,1
4879332,-0.732,0.488,0.366,0.0227,-0.7225,9.9886,28.648,29.3,1
4889347,-0.793,0.427,0.427,0.0257,-0.7135,9.9778,28.668,29.3,1
4899351,-0.732,0.366,0.427,0.0150,-0.7003,10.0143,28.674,29.3,1
4909358,-0.671,0.488,0.488,0.0245,-0.7201,10.0090,28.654,29.3,1
4919364,-0.671,0.488,0.488,0.0180,-0.7207,10.0084,28.656,29.3,1
4929377,-0.732,0.427,0.488,0.0204,-0.7254,9.9880,28.676,29.3,1
4939381,-0.854,0.488,0.427,-0.0096,-0.7141,9.9910,28.660,29.3,1
4949394,-0.854,0.427,0.488,0.0401,-0.7195,9.9910,28.621,28.3,1
4959396,-0.732,0.427,0.427,0.0168,-0.7219,9.9976,28.713,29.3,1
4969396,-0.793,0.427,0.488,0.0150,-0.6979,10.0066,28.639,29.3,1
4979405,-0.854,0.427,0.488,0.0060,-0.7069,9.9970,28.660,29.3,1
4989410,-0.793,0.488,0.427,0.0204,-0.7081,9.9916,28.695,29.3,1
4999423,-0.671,0.488,0.427,0.0293,-0.7105,9.9928,28.666,29.3,1
5009425,-0.671,0.488,0.366,0.0281,-0.6919,9.9874,28.678,29.3,1
5019438,-0.793,0.427,0.366,0.0012,-0.7135,9.9880,28.678,29.3,1
5029443,-0.793,0.366,0.488,0.0084,-0.7338,10.0137,28.688,29.3,1
5039451,-0.671,0.427,0.488,0.0018,-0.7380,9.9838,28.660,29.3,1
5049460,-0.793,0.427,0.427,0.0204,-0.7272,9.9934,28.658,29.3,1
5059468,-0.915,0.366,0.488,0.0102,-0.7272,9.9665,28.691,29.3,1
5069471,-0.793,0.488,0.427,-0.0006,-0.7105,9.9880,28.695,29.3,1
5079483,-0.793,0.427,0.488,0.0150,-0.7302,10.0090,28.699,29.3,1
5089496,-0.671,0.488,0.427,0.0186,-0.7266,10.0108,28.670,29.3,1
5099506,-0.793,0.427,0.427,-0.0042,-0.7260,9.9814,28.660,29.3,1
5109520,-0.732,0.427,0.366,-0.0006,-0.7225,9.9868,28.637,29.3,1
5119531,-0.732,0.488,0.427,0.0263,-0.7159,10.0078,28.664,29.3,1
5129542,-0.732,0.488,0.427,0.0204,-0.7171,10.0000,28.676,28.3,1
5139542,-0.793,0.427,0.427,0.0138,-0.7314,10.0072,28.672,29.3,1
5149547,-0.793,0.366,0.427,0.0042,-0.7392,9.9886,28.625,29.3,1
5159551,-0.793,0.427,0.427,-0.0048,-0.7087,9.9934,28.682,29.3,1
5169560,-0.732,0.488,0.427,0.0144,-0.7075,9.9772,28.643,29.3,1
5179566,-0.793,0.427,0.488,0.0317,-0.7236,9.9970,28.703,29.3,1
5189579,-0.793,0.427,0.427,-0.0018,-0.7213,10.0090,28.703,29.3,1
5199582,-0.732,0.427,0.427,0.0156,-0.7201,9.9796,28.646,29.3,1
5209588,-0.732,0.427,0.427,0.0245,-0.7225,9.9736,28.682,29.3,1
5219592,-0.732,0.488,0.488,0.0227,-0.7135,9.9952,28.666,28.3,1
5229595,-0.854,0.427,0.488,-0.0042,-0.7135,10.0000,28.672,29.3,1
5239611,-0.793,0.427,0.427,0.0048,-0.7183,9.9916,28.613,29.3,1
5249615,-0.732,0.427,0.488,0.0054,-0.7021,10.0048,28.697,29.3,1
5259623,-0.671,0.427,0.488,0.0066,-0.7039,9.9904,28.686,29.3,1
5269624,-0.732,0.366,0.427,0.0078,-0.7248,10.0018,28.652,29.3,1
5279630,-0.732,0.488,0.366,-0.0054,-0.7236,9.9970,28.713,29.3,1
5289633,-0.854,0.427,0.488,0.0245,-0.7051,9.9874,28.646,29.3,1
5299641,-0.671,0.427,0.427,0.0162,-0.6979,10.0012,28.715,29.3,1
5309653,-0.793,0.366,0.366,0.0204,-0.6973,9.9958,28.707,29.3,1
5319654,-0.793,0.427,0.427,0.0018,-0.7266,9.9982,28.719,29.3,1
5329659,-0.854,0.488,0.366,0.0233,-0.7075,9.9832,28.650,29.3,1
5339660,-0.976,0.488,0.427,0.0204,-0.7153,9.9916,28.697,29.3,1
5349660,-0.732,0.427,0.427,0.0257,-0.7308,9.9886,28.688,29.3,1
5359660,-0.671,0.488,0.427,0.0186,-0.7015,9.9796,28.688,29.3,1
5369664,-0.793,0.488,0.427,0.0299,-0.7225,9.9916,28.711,29.3,1
5379672,-0.793,0.488,0.427,0.0102,-0.7219,10.0137,28.717,29.3,1
5389679,-0.793,0.488,0.427,0.0072,-0.7248,10.0042,28.682,29.3,1
5399694,-0.793,0.488,0.427,0.0341,-0.7225,9.9970,28.682,29.3,1
5409695,-0.671,0.427,0.427,0.0174,-0.7123,10.0233,28.656,29.3,1
5419709,-0.854,0.427,0.427,0.0012,-0.7057,10.0096,28.680,29.3,1
5429717,-0.854,0.427,0.427,0.0054,-0.7242,9.9796,28.680,29.3,1
5439729,-0.671,0.427,0.427,0.0150,-0.7033,10.0155,28.689,29.3,1
5449735,-0.732,0.488,0.488,0.0204,-0.7009,10.0066,28.670,29.3,1
5459736,-0.793,0.488,0.427,0.0066,-0.7225,9.9982,28.689,29.3,1
5469744,-0.732,0.488,0.488,0.0293,-0.7087,9.9713,28.705,29.3,1
5479752,-0.793,0.427,0.488,0.0347,-0.7189,9.9964,28.721,29.3,1
5489760,-0.854,0.488,0.427,0.0192,-0.7159,10.0036,28.713,29.3,1
5499771,-0.732,0.427,0.427,0.0054,-0.7225,9.9940,28.684,29.3,1
5509781,-0.793,0.366,0.427,0.0144,-0.7129,9.9928,28.689,29.3,1
5519793,-0.793,0.488,0.427,0.0180,-0.7003,9.9772,28.701,29.3,1
5529794,-0.732,0.549,0.366,0.0233,-0.7081,9.9832,28.701,29.3,1
5539794,-0.793,0.427,0.366,0.0102,-0.7033,9.9880,28.688,29.3,1
5549794,-0.793,0.366,0.488,0.0102,-0.7093,9.9808,28.713,29.3,1
5559801,-0.854,0.488,0.488,0.0156,-0.7069,9.9802,28.680,29.3,1
5569809,-0.732,0.488,0.366,0.0281,-0.7117,9.9898,28.693,29.3,1
5579815,-0.732,0.488,0.366,0.0036,-0.7177,10.0036,28.697,29.3,1
5589829,-0.854,0.427,0.488,0.0054,-0.7290,9.9994,28.719,29.3,1
5599839,-0.793,0.427,0.488,0.0174,-0.7296,10.0108,28.664,29.3,1
5609844,-0.793,0.427,0.427,0.0204,-0.7254,10.0137,28.682,29.3,1
5619846,-0.732,0.427,0.427,0.0180,-0.7266,10.0299,28.684,29.3,1
5629851,-0.671,0.488,0.427,0.0144,-0.7177,10.0018,28.688,29.3,1
5639859,-0.854,0.427,0.427,0.0198,-0.7302,10.0203,28.715,29.3,1
5649870,-0.854,0.427,0.427,0.0287,-0.7153,9.9994,28.719,29.3,1
5659870,-0.732,0.488,0.488,0.0263,-0.7129,9.9982,28.670,29.3,1
5669876,-0.732,0.488,0.488,-0.0018,-0.7201,9.9910,28.682,29.3,1
5679877,-0.732,0.427,0.427,0.0126,-0.7093,10.0006,28.658,29.3,1
5689892,-0.732,0.427,0.488,0.0012,-0.7165,9.9898,28.686,29.3,1
5699898,-0.732,0.427,0.427,-0.0042,-0.7236,10.0024,28.686,29.3,1
5709898,-0.854,0.427,0.427,0.0132,-0.6997,9.9982,28.650,29.3,1
5719904,-0.854,0.427,0.427,0.0198,-0.7039,9.9964,28.668,29.3,1
5729915,-0.854,0.488,0.488,0.0000,-0.7063,10.0149,28.699,29.3,1
5739916,-0.854,0.549,0.427,0.0096,-0.7039,10.0012,28.680,29.3,1
5749923,-0.732,0.488,0.427,0.0132,-0.7290,9.9766,28.646,29.3,1
5759923,-0.732,0.488,0.427,0.0120,-0.7278,9.9946,28.654,29.3,1
5769930,-0.732,0.488,0.488,0.0102,-0.7093,10.0048,28.729,29.3,1
5779943,-0.732,0.427,0.488,0.0078,-0.7171,9.9820,28.697,29.3,1
5789944,-0.732,0.488,0.427,0.0114,-0.7302,10.0024,28.703,29.3,1
5799959,-0.793,0.427,0.488,0.0072,-0.7284,9.9946,28.648,29.3,1
5809969,-0.793,0.427,0.427,-0.0018,-0.7225,9.9838,28.645,29.3,1
5819980,-0.732,0.427,0.427,-0.0060,-0.7308,9.9802,28.682,29.3,1
5829991,-0.671,0.427,0.488,0.0227,-0.7195,10.0018,28.693,29.3,1
5839992,-0.732,0.366,0.549,0.0138,-0.7171,10.0173,28.686,29.3,1
5850007,-0.793,0.427,0.427,-0.0030,-0.7045,9.9964,28.672,29.3,1
5860011,-0.793,0.549,0.427,-0.0120,-0.7129,10.0060,28.699,29.3,1
5870022,-0.732,0.427,0.427,0.0150,-0.7207,10.0066,28.699,29.3,1
5880027,-0.732,0.427,0.366,0.0132,-0.7051,9.9778,28.691,29.3,1
5890035,-0.732,0.427,0.366,0.0126,-0.6847,9.9850,28.730,29.3,1
5900037,-0.793,0.366,0.427,0.0162,-0.7189,9.9988,28.682,29.3,1
5910044,-0.793,0.427,0.427,0.0251,-0.7183,9.9742,28.670,29.3,1
5920052,-0.793,0.427,0.427,0.0215,-0.7189,9.9916,28.682,29.3,1
5930065,-0.793,0.488,0.549,0.0168,-0.7129,9.9892,28.689,29.3,1
5940070,-0.732,0.366,0.427,0.0138,-0.7183,9.9910,28.715,29.3,1
5950075,-0.732,0.427,0.488,0.0132,-0.7147,9.9838,28.697,29.3,1
5960085,-0.732,0.427,0.488,0.0132,-0.7314,9.9730,28.707,29.3,1
5970096,-0.854,0.366,0.305,0.0245,-0.7027,9.9790,28.654,29.3,1
5980110,-0.732,0.427,0.366,0.0132,-0.7117,10.0030,28.699,29.3,1
5990121,-0.732,0.427,0.488,0.0156,-0.7428,9.9784,28.684,29.3,1
6000129,-0.732,0.488,0.488,0.0204,-0.7189,9.9934,28.682,29.3,1
6010131,-0.732,0.427,0.427,0.0198,-0.7117,10.0161,28.689,29.3,1
6020136,-0.732,0.427,0.427,0.0395,-0.7254,9.9964,28.688,29.3,1
6030138,-0.793,0.366,0.488,0.0180,-0.7081,9.9778,28.686,29.3,1
6040140,-0.793,0.488,0.427,0.0132,-0.7230,9.9898,28.686,29.3,1
6050146,-0.793,0.488,0.488,0.0263,-0.7225,9.9946,28.658,29.3,1
6060151,-0.732,0.427,0.427,0.0227,-0.7069,9.9778,28.643,29.3,1
6070153,-0.793,0.366,0.427,0.0132,-0.7236,9.9904,28.699,29.3,1
6080168,-0.732,0.427,0.427,0.0275,-0.7117,9.9647,28.656,29.3,1
6090182,-0.732,0.427,0.488,0.0084,-0.7308,9.9982,28.703,29.3,1
6100196,-0.854,0.366,0.427,0.0054,-0.7356,9.9982,28.682,29.3,1
6110196,-0.732,0.427,0.488,0.0096,-0.7266,10.0000,28.639,29.3,1
6120205,-0.610,0.427,0.488,0.0209,-0.7057,10.0036,28.666,29.3,1
6130213,-0.793,0.488,0.427,0.0198,-0.7087,9.9880,28.668,29.3,1
6140214,-0.793,0.488,0.488,0.0144,-0.7135,9.9844,28.691,29.3,1
6150225,-0.732,0.366,0.366,0.0323,-0.7201,10.0155,28.717,29.3,1
6160227,-0.854,0.366,0.366,0.0245,-0.7165,9.9994,28.721,29.3,1
6170229,-0.793,0.427,0.488,0.0215,-0.7129,9.9946,28.715,29.3,1
6180237,-0.793,0.427,0.427,0.0090,-0.6979,9.9826,28.672,29.3,1
6190245,-0.732,0.488,0.488,0.0287,-0.7075,9.9952,28.668,29.3,1
6200253,-0.793,0.488,0.427,0.0192,-0.7135,9.9934,28.686,29.3,1
6210257,-0.854,0.427,0.488,0.0174,-0.7063,9.9874,28.686,29.3,1
6220266,-0.854,0.549,0.488,0.0257,-0.7189,9.9766,28.701,29.3,1
6230268,-0.732,0.427,0.488,0.0114,-0.7123,9.9850,28.729,29.3,1
6240273,-0.732,0.427,0.488,0.0293,-0.7195,10.0054,28.707,29.3,1
6250286,-0.793,0.488,0.427,0.0030,-0.7123,9.9904,28.662,29.3,1
6260298,-0.793,0.427,0.488,0.0018,-0.7111,9.9976,28.719,29.3,1
6270298,-0.732,0.488,0.427,0.0108,-0.7051,10.0275,28.693,29.3,1
6280298,-0.732,0.427,0.427,0.0275,-0.7236,10.0108,28.670,29.3,1
6290298,-0.793,0.488,0.366,0.0024,-0.7165,9.9898,28.674,29.3,1
6300305,-0.732,0.427,0.427,-0.0054,-0.7248,10.0024,28.711,29.3,1
6310314,-0.793,0.427,0.427,0.0048,-0.7242,10.0042,28.703,29.3,1
6320327,-0.854,0.366,0.427,0.0090,-0.7111,9.9736,28.688,29.3,1
6330338,-0.732,0.488,0.366,0.0293,-0.7141,10.0108,28.670,29.3,1
6340349,-0.793,0.488,0.427,0.0120,-0.7003,10.0161,28.672,29.3,1
6350362,-0.793,0.427,0.427,0.0126,-0.7230,10.0149,28.652,29.3,1
6360374,-0.732,0.366,0.427,0.0126,-0.7177,9.9958,28.729,29.3,1
6370374,-0.793,0.427,0.427,0.0108,-0.7308,9.9665,28.703,29.3,1
6380377,-0.793,0.366,0.488,0.0078,-0.7033,9.9982,28.703,29.3,1
6390390,-0.732,0.366,0.427,0.0060,-0.7147,10.0078,28.701,29.3,1
6400399,-0.793,0.488,0.427,0.0102,-0.7278,9.9934,28.660,29.3,1
6410407,-0.732,0.427,0.427,0.0150,-0.7039,9.9862,28.689,29.3,1
6420408,-0.793,0.427,0.427,0.0042,-0.6997,9.9796,28.641,29.3,1
6430420,-0.732,0.427,0.488,0.0162,-0.6991,9.9982,28.717,29.3,1
6440425,-0.671,0.427,0.549,0.0102,-0.7111,9.9940,28.684,29.3,1
6450435,-0.732,0.427,0.427,0.0000,-0.7284,10.0030,28.658,29.3,1
6460445,-0.793,0.488,0.366,0.0090,-0.7171,10.0006,28.668,29.3,1
6470455,-0.793,0.488,0.427,0.0120,-0.6997,9.9934,28.678,29.3,1
6480458,-0.793,0.488,0.549,0.0132,-0.6985,9.9904,28.686,29.3,1
6490469,-0.732,0.427,0.427,0.0000,-0.7332,10.0024,28.699,29.3,1
6500481,-0.671,0.427,0.427,-0.0054,-0.7129,10.0000,28.682,29.3,1
6510486,-0.732,0.488,0.427,0.0006,-0.7015,10.0072,28.662,29.3,1
6520496,-0.732,0.427,0.427,0.0150,-0.7278,10.0173,28.678,29.3,1
6530501,-0.732,0.488,0.427,0.0018,-0.7183,9.9838,28.682,29.3,1
6540514,-0.671,0.488,0.427,0.0233,-0.6991,9.9916,28.686,29.3,1
6550518,-0.854,0.427,0.427,0.0204,-0.7069,9.9946,28.686,29.3,1
6560521,-0.793,0.427,0.366,0.0084,-0.7093,10.0048,28.660,29.3,1
6570527,-0.732,0.488,0.427,0.0096,-0.7111,10.0096,28.717,29.3,1
6580536,-0.793,0.488,0.427,0.0233,-0.7003,9.9856,28.695,29.3,1
6590542,-0.793,0.427,0.427,0.0335,-0.7177,9.9862,28.703,29.3,1
6600547,-0.793,0.366,0.427,-0.0036,-0.7111,9.9814,28.689,29.3,1
6610549,-0.793,0.427,0.366,0.0120,-0.7129,9.9952,28.684,29.3,1
6620556,-0.732,0.488,0.427,0.0168,-0.7183,10.0060,28.729,29.3,1
6630560,-0.732,0.549,0.427,0.0281,-0.7081,9.9934,28.684,29.3,1
6640564,-0.793,0.427,0.427,0.0042,-0.7081,9.9922,28.664,29.3,1
6650572,-0.793,0.366,0.427,0.0174,-0.7147,9.9988,28.711,29.3,1
6660572,-0.793,0.427,0.488,0.0293,-0.7189,9.9826,28.695,29.3,1
6670577,-0.732,0.488,0.427,-0.0078,-0.7075,10.0012,28.715,29.3,1
6680579,-0.732,0.427,0.427,0.0018,-0.7201,10.0030,28.711,29.3,1
6690590,-0.732,0.366,0.427,0.0215,-0.7045,10.0018,28.715,29.3,1
6700595,-0.793,0.488,0.488,0.0132,-0.7093,10.0132,28.668,29.3,1
6710611,-0.732,0.488,0.488,0.0078,-0.7171,9.9790,28.709,29.3,1
6720615,-0.915,0.427,0.427,0.0180,-0.7033,9.9976,28.709,29.3,1
6730615,-0.793,0.427,0.488,0.0227,-0.7027,9.9976,28.689,29.3,1
6740626,-0.732,0.427,0.427,0.0186,-0.7105,10.0084,28.682,29.3,1
6750626,-0.732,0.488,0.427,0.0054,-0.7099,9.9916,28.711,29.3,1
6760634,-0.732,0.427,0.427,0.0186,-0.7290,10.0036,28.686,29.3,1
6770639,-0.732,0.427,0.427,0.0162,-0.7284,9.9928,28.678,29.3,1
6780648,-0.793,0.488,0.488,0.0096,-0.7177,9.9814,28.707,29.3,1
6790656,-0.793,0.488,0.427,0.0096,-0.7183,9.9826,28.729,29.3,1
6800660,-0.915,0.488,0.427,0.0066,-0.7111,10.0072,28.678,29.3,1
6810674,-0.854,0.488,0.488,0.0144,-0.7051,10.0054,28.682,29.3,1
6820676,-0.854,0.549,0.427,0.0072,-0.7236,9.9886,28.652,29.3,1
6830679,-0.915,0.427,0.549,0.0144,-0.7236,9.9868,28.674,29.3,1
6840690,-0.793,0.488,0.427,0.0096,-0.7248,9.9802,28.695,29.3,1
6850702,-0.793,0.427,0.427,0.0048,-0.7081,9.9766,28.705,29.3,1
6860706,-0.793,0.427,0.427,0.0245,-0.7225,9.9958,28.705,29.3,1
6870717,-0.793,0.488,0.427,0.0245,-0.7063,10.0132,28.697,29.3,1
6880722,-0.671,0.488,0.427,0.0084,-0.7153,9.9910,28.658,29.3,1
6890725,-0.793,0.427,0.549,0.0108,-0.7207,10.0042,28.658,29.3,1
6900732,-0.793,0.427,0.366,0.0078,-0.7003,10.0167,28.703,29.3,1
6910746,-0.793,0.488,0.366,0.0024,-0.7093,10.0102,28.672,29.3,1
6920750,-0.671,0.427,0.366,-0.0072,-0.7129,9.9868,28.723,29.3,1
6930752,-0.854,0.366,0.549,0.0150,-0.7236,9.9766,28.715,29.3,1
6940752,-0.854,0.366,0.488,0.0024,-0.7177,9.9904,28.703,29.3,1
6950763,-0.793,0.366,0.488,0.0066,-0.7213,9.9982,28.680,29.3,1
6960775,-0.854,0.549,0.427,0.0048,-0.7111,9.9856,28.709,29.3,1
6970785,-0.915,0.427,0.549,0.0180,-0.7105,9.9952,28.695,29.3,1
6980793,-0.732,0.427,0.549,0.0281,-0.7225,10.0084,28.691,29.3,1
6990798,-0.732,0.427,0.427,0.0132,-0.7248,10.0066,28.680,29.3,1
7000811,-0.793,0.427,0.488,0.0012,-0.7272,9.9713,28.711,29.3,1
7010811,-0.732,0.488,0.488,0.0299,-0.7159,9.9910,28.701,29.3,1
7020822,-0.732,0.488,0.427,0.0180,-0.7045,10.0042,28.693,29.3,1
7030822,-0.732,0.488,0.427,0.0281,-0.7069,9.9982,28.668,29.3,1
7040832,-0.793,0.366,0.427,0.0138,-0.7105,9.9707,28.701,29.3,1
7050839,-0.793,0.488,0.366,0.0335,-0.7123,10.0102,28.693,29.3,1
7060839,-0.793,0.549,0.427,0.0323,-0.7147,10.0054,28.693,29.3,1
7070842,-0.732,0.427,0.488,0.0102,-0.6973,9.9904,28.668,29.3,1
7080851,-0.793,0.366,0.427,0.0138,-0.7081,9.9856,28.709,29.3,1
7090852,-0.793,0.427,0.488,0.0072,-0.7225,10.0143,28.715,29.3,1
7100852,-0.793,0.488,0.366,0.0198,-0.7326,9.9904,28.711,29.3,1
7110852,-0.732,0.427,0.427,0.0078,-0.7219,10.0054,28.688,29.3,1
7120862,-0.671,0.427,0.488,0.0090,-0.6979,9.9994,28.705,29.3,1
7130862,-0.854,0.488,0.427,0.0281,-0.7308,9.9880,28.684,29.3,1
7140867,-0.854,0.427,0.427,0.0245,-0.7248,9.9874,28.719,29.3,1
7150872,-0.793,0.427,0.427,0.0132,-0.7254,9.9982,28.654,29.3,1
7160876,-0.854,0.488,0.427,0.0162,-0.7135,10.0132,28.727,29.3,1
7170883,-0.793,0.488,0.366,0.0251,-0.7236,10.0072,28.676,29.3,1
7180885,-0.793,0.488,0.427,0.0138,-0.7039,9.9946,28.682,29.3,1
7190888,-0.732,0.427,0.427,-0.0042,-0.7033,9.9904,28.727,29.3,1
7200889,-0.854,0.427,0.488,0.0018,-0.7045,9.9844,28.682,29.3,1
7210889,-0.732,0.488,0.427,0.0102,-0.7087,9.9904,28.699,29.3,1
7220897,-0.732,0.427,0.488,0.0144,-0.7015,9.9683,28.635,29.3,1
7230900,-0.793,0.427,0.488,0.0233,-0.7153,10.0000,28.635,29.3,1
7240912,-0.793,0.488,0.488,0.0030,-0.7165,9.9946,28.730,29.3,1
7250915,-0.732,0.427,0.488,0.0138,-0.7009,10.0060,28.725,29.3,1
7260919,-0.671,0.427,0.427,0.0054,-0.7326,10.0024,28.705,29.3,1
7270927,-0.671,0.427,0.427,-0.0030,-0.7105,9.9928,28.691,29.3,1
7280931,-0.732,0.427,0.427,0.0257,-0.7117,9.9922,28.639,29.3,1
7290933,-0.732,0.427,0.366,0.0227,-0.7338,9.9976,28.695,29.3,1
7300934,-0.793,0.488,0.427,0.0096,-0.7213,10.0149,28.695,29.3,1
7310946,-0.732,0.427,0.488,0.0084,-0.7075,10.0000,28.740,29.3,1
7320950,-0.732,0.427,0.427,0.0329,-0.7087,9.9982,28.744,29.3,1
7330950,-0.854,0.427,0.427,0.0132,-0.7081,9.9719,28.705,29.3,1
7340953,-0.793,0.488,0.427,0.0174,-0.7063,9.9976,28.719,29.3,1
7350958,-0.793,0.488,0.366,0.0030,-0.7213,9.9988,28.682,29.3,1
7360961,-0.732,0.366,0.488,-0.0018,-0.7266,9.9856,28.695,29.3,1
7370969,-0.854,0.427,0.488,0.0054,-0.7260,9.9976,28.686,29.3,1
7380969,-0.793,0.427,0.427,0.0174,-0.7033,10.0132,28.742,29.3,1
7390976,-0.793,0.427,0.488,0.0347,-0.7171,10.0012,28.689,29.3,1
7400976,-0.732,0.488,0.427,0.0341,-0.7063,10.0006,28.689,29.3,1
7410989,-0.732,0.427,0.427,0.0180,-0.7219,10.0096,28.703,29.3,1
7420998,-0.732,0.427,0.427,0.0132,-0.7147,10.0060,28.682,29.3,1
7431007,-0.793,0.488,0.427,0.0281,-0.7033,9.9886,28.682,29.3,1
7441011,-0.793,0.488,0.366,0.0221,-0.7171,9.9964,28.711,29.3,1
7451026,-0.854,0.427,0.427,0.0156,-0.7183,9.9988,28.736,29.3,1
7461037,-0.793,0.427,0.488,0.0138,-0.7314,9.9976,28.715,29.3,1
7471037,-0.732,0.427,0.488,0.0084,-0.7278,9.9922,28.689,29.3,1
7481040,-0.610,0.427,0.366,0.0126,-0.7075,9.9892,28.652,29.3,1
7491050,-0.732,0.366,0.366,0.0198,-0.7147,9.9940,28.693,29.3,1
7501057,-0.854,0.427,0.427,0.0102,-0.7123,10.0185,28.684,29.3,1
7511070,-0.793,0.488,0.488,0.0096,-0.7087,9.9976,28.650,29.3,1
7521070,-0.732,0.488,0.427,0.0120,-0.7153,9.9748,28.682,29.3,1
7531083,-0.793,0.427,0.488,0.0072,-0.7242,9.9946,28.682,29.3,1
7541088,-0.732,0.427,0.427,0.0090,-0.7362,9.9916,28.717,29.3,1
7551103,-0.732,0.427,0.427,0.0221,-0.7260,9.9898,28.609,29.3,1
7561107,-0.793,0.427,0.427,0.0227,-0.7213,10.0090,28.699,29.3,1
7571120,-0.732,0.366,0.427,0.0048,-0.7195,10.0042,28.699,29.3,1
7581131,-0.732,0.366,0.427,-0.0144,-0.7260,9.9838,28.684,29.3,1
7591140,-0.671,0.427,0.427,-0.0054,-0.7135,9.9898,28.715,29.3,1
7601146,-0.793,0.427,0.427,0.0060,-0.7183,9.9910,28.723,29.3,1
7611146,-0.732,0.427,0.488,0.0096,-0.7063,9.9988,28.711,29.3,1
7621151,-0.732,0.488,0.488,0.0215,-0.7069,10.0078,28.701,29.3,1
7631151,-0.793,0.488,0.427,0.0186,-0.7003,10.0066,28.729,29.3,1
7641164,-0.854,0.549,0.488,0.0120,-0.7117,10.0018,28.652,29.3,1
7651171,-0.854,0.488,0.305,0.0042,-0.7039,9.9976,28.678,29.3,1
7661179,-0.793,0.366,0.427,0.0090,-0.7135,9.9784,28.660,29.3,1
7671186,-0.793,0.488,0.427,0.0227,-0.7123,9.9820,28.670,29.3,1
7681195,-0.854,0.488,0.488,0.0215,-0.7248,9.9826,28.721,29.3,1
7691207,-0.793,0.488,0.488,0.0162,-0.7123,9.9868,28.656,29.3,1
7701214,-0.732,0.366,0.427,0.0215,-0.7045,10.0036,28.668,29.3,1
7711227,-0.793,0.488,0.427,0.0287,-0.7147,9.9886,28.682,29.3,1
7721237,-0.793,0.427,0.427,0.0108,-0.7195,9.9892,28.701,29.3,1
7731242,-0.793,0.366,0.488,0.0221,-0.7117,9.9874,28.689,29.3,1
7741243,-0.793,0.427,0.488,0.0150,-0.7242,9.9928,28.689,29.3,1
7751255,-0.732,0.427,0.488,0.0275,-0.7087,9.9910,28.664,29.3,1
7761262,-0.671,0.427,0.427,0.0132,-0.7027,9.9844,28.744,29.3,1
7771274,-0.732,0.488,0.366,0.0012,-0.7225,10.0096,28.646,29.3,1
7781275,-0.732,0.488,0.366,0.0138,-0.7320,10.0155,28.684,29.3,1
7791275,-0.793,0.488,0.488,0.0174,-0.7123,9.9766,28.715,29.3,1
7801289,-0.732,0.427,0.488,0.0186,-0.6937,10.0006,28.725,29.3,1
7811298,-0.793,0.366,0.549,0.0227,-0.7009,10.0072,28.664,29.3,1
7821308,-0.793,0.427,0.549,0.0078,-0.7177,9.9934,28.678,29.3,1
7831316,-0.732,0.427,0.488,0.0317,-0.7093,9.9778,28.709,29.3,1
7841323,-0.854,0.427,0.488,0.0168,-0.7117,9.9862,28.691,29.3,1
7851336,-0.793,0.488,0.549,0.0227,-0.6895,9.9695,28.723,29.3,1
7861346,-0.793,0.427,0.488,0.0204,-0.7045,9.9928,28.711,29.3,1
7871351,-0.854,0.488,0.427,0.0096,-0.7254,9.9862,28.682,29.3,1
7881364,-0.793,0.427,0.427,0.0186,-0.7165,9.9880,28.684,29.3,1
7891365,-0.915,0.488,0.427,0.0162,-0.7117,9.9844,28.725,29.3,1
7901379,-0.793,0.488,0.427,0.0012,-0.7225,9.9916,28.701,29.3,1
7911392,-0.793,0.427,0.366,0.0180,-0.7248,10.0006,28.701,29.3,1
7921399,-0.793,0.488,0.427,-0.0018,-0.7207,9.9892,28.697,29.3,1
7931412,-0.793,0.488,0.488,-0.0072,-0.6979,9.9898,28.670,29.3,1
7941420,-0.793,0.427,0.427,0.0162,-0.7099,9.9886,28.682,29.3,1
7951423,-0.671,0.427,0.427,0.0174,-0.7314,10.0048,28.697,29.3,1
7961435,-0.793,0.427,0.488,0.0084,-0.7141,10.0066,28.717,29.3,1
7971449,-0.854,0.427,0.427,0.0209,-0.7081,9.9988,28.732,29.3,1
7981453,-0.732,0.549,0.366,0.0096,-0.7165,10.0054,28.709,29.3,1
7991460,-0.793,0.427,0.488,0.0186,-0.7123,10.0102,28.746,29.3,1
8001466,-0.732,0.427,0.427,0.0144,-0.6973,10.0012,28.709,29.3,1
8011472,-0.732,0.427,0.549,0.0198,-0.7123,9.9928,28.711,29.3,1
8021486,-0.793,0.488,0.488,0.0150,-0.7308,9.9922,28.678,29.3,1
8031499,-0.854,0.427,0.427,0.0150,-0.7171,9.9922,28.715,29.3,1
8041501,-0.854,0.366,0.427,0.0138,-0.7153,10.0096,28.707,29.3,1
8051506,-0.793,0.366,0.488,0.0072,-0.7350,9.9994,28.662,29.3,1
8061518,-0.732,0.366,0.427,0.0156,-0.7242,9.9826,28.695,29.3,1
8071518,-0.793,0.427,0.366,0.0144,-0.7105,9.9784,28.715,29.3,1
8081521,-0.854,0.427,0.427,0.0209,-0.7314,10.0114,28.715,29.3,1
8091531,-0.793,0.549,0.366,0.0048,-0.7189,9.9916,28.703,29.3,1
8101545,-0.732,0.488,0.427,0.0126,-0.7105,9.9940,28.715,29.3,1
8111547,-0.671,0.366,0.427,0.0162,-0.7183,9.9976,28.703,29.3,1
8121551,-0.732,0.427,0.427,0.0204,-0.7117,9.9940,28.691,29.3,1
8131560,-0.793,0.427,0.549,0.0150,-0.7254,9.9892,28.703,29.3,1
8141562,-0.732,0.427,0.488,0.0114,-0.7195,9.9778,28.684,29.3,1
8151562,-0.732,0.488,0.427,0.0168,-0.7039,9.9880,28.691,29.3,1
8161562,-0.732,0.488,0.366,-0.0024,-0.7165,10.0030,28.715,29.3,1
8171567,-0.854,0.488,0.427,0.0144,-0.7087,10.0006,28.711,29.3,1
8181572,-0.854,0.488,0.427,0.0108,-0.7225,9.9970,28.719,29.3,1
8191582,-0.671,0.427,0.488,0.0114,-0.7165,10.0048,28.697,29.3,1
8201595,-0.793,0.427,0.488,0.0096,-0.7147,9.9730,28.691,29.3,1
8211603,-0.854,0.427,0.427,0.0263,-0.7278,9.9952,28.715,29.3,1
8221603,-0.732,0.427,0.427,0.0239,-0.7219,9.9802,28.723,29.3,1
8231603,-0.854,0.427,0.488,0.0132,-0.7177,10.0084,28.723,29.3,1
8241609,-0.732,0.427,0.488,0.0066,-0.7254,10.0227,28.674,29.3,1
8251618,-0.793,0.427,0.427,0.0198,-0.7213,9.9976,28.674,29.3,1
8261623,-0.671,0.427,0.366,0.0168,-0.7177,10.0030,28.697,29.3,1
8271631,-0.671,0.427,0.427,0.0168,-0.6985,9.9880,28.676,29.3,1
8281646,-0.732,0.427,0.488,0.0156,-0.7230,9.9724,28.678,29.3,1
8291654,-0.732,0.427,0.427,0.0066,-0.7141,9.9820,28.715,29.3,1
8301659,-0.793,0.488,0.427,0.0084,-0.6973,9.9988,28.652,29.3,1
8311660,-0.793,0.427,0.366,0.0281,-0.7051,9.9982,28.686,29.3,1
8321663,-0.671,0.427,0.549,0.0209,-0.7087,9.9844,28.729,29.3,1
8331672,-0.854,0.427,0.549,0.0198,-0.7236,9.9778,28.684,29.3,1
8341675,-0.793,0.366,0.488,0.0156,-0.7171,10.0006,28.697,29.3,1
8351676,-0.793,0.366,0.427,0.0132,-0.7039,9.9892,28.715,29.3,1
8361684,-0.854,0.366,0.427,0.0215,-0.7248,10.0078,28.668,29.3,1
8371684,-0.793,0.488,0.427,0.0215,-0.7087,9.9970,28.654,29.3,1
8381685,-0.732,0.427,0.427,0.0186,-0.7075,9.9940,28.664,29.3,1
8391690,-0.732,0.427,0.427,0.0275,-0.7009,9.9868,28.688,29.3,1
8401702,-0.793,0.427,0.427,0.0090,-0.7183,10.0030,28.693,29.3,1
8411715,-0.793,0.488,0.488,0.0096,-0.6967,9.9701,28.703,29.3,1
8421724,-0.732,0.427,0.427,0.0120,-0.7063,9.9952,28.703,29.3,1
8431730,-0.671,0.366,0.488,0.0030,-0.7260,9.9946,28.721,29.3,1
8441733,-0.732,0.366,0.488,0.0311,-0.7248,9.9802,28.693,29.3,1
8451748,-0.732,0.488,0.427,0.0221,-0.7242,10.0090,28.703,29.3,1
8461748,-0.793,0.427,0.427,0.0257,-0.7254,9.9964,28.715,29.3,1
8471748,-0.854,0.366,0.488,0.0180,-0.7141,9.9964,28.660,29.3,1
8481752,-0.793,0.427,0.488,0.0060,-0.7093,9.9844,28.697,29.3,1
8491755,-0.732,0.488,0.427,0.0090,-0.7045,10.0000,28.713,29.3,1
8501763,-0.793,0.488,0.366,0.0341,-0.7093,9.9904,28.734,29.3,1
8511765,-0.671,0.366,0.427,0.0120,-0.7159,10.0030,28.707,29.3,1
8521776,-0.793,0.427,0.488,0.0275,-0.7147,9.9940,28.693,29.3,1
8531782,-0.854,0.488,0.427,0.0156,-0.7165,9.9922,28.699,29.3,1
8541786,-0.732,0.427,0.427,0.0072,-0.7129,10.0036,28.709,29.3,1
8551786,-0.793,0.488,0.427,0.0162,-0.7081,10.0084,28.674,29.3,1
8561797,-0.793,0.549,0.549,0.0353,-0.7266,10.0024,28.699,29.3,1
8571809,-0.793,0.488,0.488,0.0144,-0.7135,9.9970,28.725,29.3,1
8581822,-0.732,0.549,0.427,0.0006,-0.6907,9.9826,28.736,29.3,1
8591826,-0.793,0.427,0.488,-0.0072,-0.7015,9.9862,28.736,29.3,1
8601826,-0.793,0.366,0.488,0.0180,-0.7099,10.0018,28.721,29.3,1
8611829,-0.732,0.366,0.488,0.0162,-0.7087,10.0060,28.684,29.3,1
8621837,-0.854,0.427,0.488,0.0006,-0.7189,9.9826,28.723,29.3,1
8631839,-0.732,0.366,0.427,0.0096,-0.7093,9.9832,28.727,29.3,1
8641842,-0.732,0.427,0.366,0.0174,-0.6788,9.9784,28.729,29.3,1
8651847,-0.732,0.427,0.488,0.0168,-0.6961,9.9814,28.664,29.3,1
8661857,-0.732,0.427,0.549,0.0257,-0.7069,9.9880,28.717,29.3,1
8671870,-0.793,0.488,0.427,0.0150,-0.7135,9.9844,28.736,29.3,1
8681870,-0.793,0.488,0.488,0.0150,-0.7159,10.0000,28.650,29.3,1
8691877,-0.732,0.427,0.488,0.0305,-0.7242,10.0090,28.680,29.3,1
8701883,-0.854,0.427,0.488,0.0299,-0.7129,9.9916,28.686,29.3,1
8711892,-0.793,0.427,0.427,0.0084,-0.7045,10.0006,28.738,29.3,1
8721902,-0.793,0.488,0.366,0.0078,-0.7051,9.9964,28.682,29.3,1
8731915,-0.732,0.488,0.366,0.0233,-0.7171,10.0090,28.711,29.3,1
8741916,-0.732,0.427,0.366,0.0150,-0.7009,9.9976,28.736,29.3,1
8751919,-0.671,0.366,0.366,0.0060,-0.7063,9.9826,28.689,29.3,1
8761920,-0.793,0.427,0.427,0.0012,-0.7069,10.0179,28.689,29.3,1
8771931,-0.793,0.488,0.427,0.0102,-0.7045,10.0191,28.656,29.3,1
8781933,-0.732,0.427,0.427,0.0072,-0.7045,10.0000,28.734,29.3,1
8791944,-0.793,0.488,0.488,0.0174,-0.7051,10.0155,28.744,29.3,1
8801953,-0.854,0.488,0.427,0.0251,-0.7135,9.9862,28.723,29.3,1
8811961,-0.793,0.427,0.427,0.0263,-0.7093,9.9724,28.701,29.3,1
8821961,-0.793,0.366,0.427,0.0180,-0.7069,9.9772,28.695,29.3,1
8831973,-0.793,0.488,0.427,0.0186,-0.7027,10.0078,28.715,29.3,1
8841984,-0.793,0.488,0.305,0.0329,-0.7111,10.0066,28.689,29.3,1
8851994,-0.854,0.427,0.427,0.0215,-0.7093,10.0114,28.684,29.3,1
8862007,-0.732,0.427,0.427,0.0090,-0.7129,9.9748,28.691,29.3,1
8872014,-0.854,0.427,0.427,0.0257,-0.6991,9.9862,28.727,29.3,1
8882022,-0.732,0.488,0.427,0.0126,-0.7105,9.9886,28.697,29.3,1
8892026,-0.732,0.366,0.427,0.0126,-0.7051,10.0012,28.666,29.3,1
8902029,-0.854,0.488,0.427,0.0275,-0.7159,10.0054,28.703,29.3,1
8912035,-0.854,0.488,0.488,0.0251,-0.7213,10.0167,28.701,29.3,1
8922039,-0.732,0.488,0.427,0.0078,-0.7069,9.9730,28.727,29.3,1
8932045,-0.854,0.427,0.488,0.0138,-0.7009,9.9958,28.727,29.3,1
8942050,-0.915,0.488,0.427,0.0156,-0.7248,9.9946,28.682,29.3,1
8952056,-0.793,0.427,0.366,0.0030,-0.7147,9.9844,28.748,29.3,1
8962060,-0.793,0.427,0.488,0.0162,-0.7177,10.0036,28.682,29.3,1
8972068,-0.793,0.366,0.488,0.0263,-0.7159,10.0030,28.736,29.3,1
8982075,-0.793,0.427,0.488,0.0168,-0.7081,10.0149,28.707,29.3,1
8992083,-0.854,0.488,0.427,0.0209,-0.7093,9.9665,28.725,29.3,1
9002095,-0.793,0.427,0.427,0.0150,-0.7075,9.9856,28.689,29.3,1
9012103,-0.732,0.366,0.488,0.0012,-0.7051,10.0048,28.682,29.3,1
9022116,-0.854,0.427,0.488,0.0168,-0.7099,10.0012,28.697,29.3,1
9032129,-0.793,0.488,0.366,0.0060,-0.7033,10.0042,28.639,29.3,1
9042140,-0.854,0.488,0.427,0.0108,-0.7284,10.0137,28.699,29.3,1
9052148,-0.793,0.427,0.427,0.0156,-0.7189,9.9874,28.693,29.3,1
9062161,-0.793,0.427,0.427,0.0192,-0.7278,9.9970,28.703,29.3,1
9072171,-0.732,0.488,0.427,0.0186,-0.7225,10.0084,28.682,29.3,1
9082177,-0.793,0.366,0.427,0.0287,-0.7183,9.9719,28.670,29.3,1
9092192,-0.732,0.366,0.488,-0.0006,-0.7189,9.9844,28.678,29.3,1
9102192,-0.793,0.427,0.488,0.0072,-0.7093,9.9982,28.678,29.3,1
9112196,-0.793,0.488,0.427,0.0198,-0.7141,10.0132,28.744,29.3,1
9122198,-0.854,0.488,0.427,0.0102,-0.7183,10.0012,28.707,29.3,1
9132207,-0.732,0.427,0.427,0.0150,-0.7278,10.0060,28.686,29.3,1
9142212,-0.732,0.427,0.366,0.0096,-0.7260,9.9862,28.688,29.3,1
9152214,-0.732,0.488,0.488,0.0072,-0.7159,10.0054,28.740,29.3,1
9162225,-0.793,0.427,0.366,-0.0036,-0.7171,10.0084,28.678,29.3,1
9172227,-0.793,0.366,0.427,0.0168,-0.7201,10.0048,28.727,29.3,1
9182227,-0.854,0.488,0.427,0.0066,-0.7093,9.9976,28.713,29.3,1
9192228,-0.793,0.427,0.488,0.0120,-0.7284,10.0060,28.695,29.3,1
9202229,-0.732,0.488,0.427,0.0090,-0.7147,10.0066,28.705,29.3,1
9212229,-0.732,0.549,0.427,0.0138,-0.7171,10.0012,28.666,29.3,1
9222242,-0.793,0.427,0.488,0.0132,-0.7201,10.0108,28.713,29.3,1
9232253,-0.854,0.427,0.427,0.0227,-0.7308,10.0060,28.691,29.3,1
9242258,-0.854,0.427,0.427,0.0018,-0.7219,10.0090,28.723,29.3,1
9252271,-0.732,0.366,0.488,0.0204,-0.6979,9.9856,28.701,29.3,1
9262286,-0.732,0.427,0.427,0.0120,-0.7165,9.9814,28.697,29.3,1
9272292,-0.854,0.427,0.427,0.0245,-0.7422,9.9814,28.697,29.3,1
9282293,-0.793,0.427,0.427,0.0108,-0.7183,9.9886,28.686,29.3,1
9292304,-0.793,0.427,0.488,0.0054,-0.7296,9.9880,28.750,29.3,1
9302318,-0.915,0.488,0.427,0.0180,-0.7225,9.9916,28.697,29.3,1
9312318,-0.854,0.427,0.427,0.0108,-0.7314,9.9862,28.660,29.3,1
9322329,-0.732,0.427,0.427,0.0072,-0.7266,9.9934,28.678,29.3,1
9332343,-0.793,0.488,0.427,0.0054,-0.7248,9.9916,28.715,29.3,1
9342347,-0.732,0.366,0.488,0.0078,-0.7284,9.9838,28.691,29.3,1
9352349,-0.793,0.366,0.488,0.0293,-0.7284,9.9916,28.729,29.3,1
9362350,-0.854,0.366,0.427,0.0275,-0.7219,10.0072,28.678,29.3,1
9372362,-0.732,0.427,0.366,0.0078,-0.7117,9.9784,28.746,29.3,1
9382366,-0.671,0.427,0.427,0.0090,-0.7201,10.0006,28.682,29.3,1
9392374,-0.671,0.427,0.549,0.0245,-0.7165,9.9880,28.707,29.3,1
9402377,-0.793,0.488,0.549,0.0305,-0.7201,10.0185,28.670,29.3,1
9412379,-0.854,0.488,0.488,0.0204,-0.7045,10.0060,28.717,29.3,1
9422392,-0.854,0.488,0.488,0.0174,-0.7165,9.9964,28.652,29.3,1
9432392,-0.732,0.488,0.488,0.0233,-0.7159,10.0143,28.691,29.3,1
9442405,-0.854,0.366,0.488,0.0395,-0.7063,10.0018,28.691,29.3,1
9452410,-0.793,0.427,0.427,0.0126,-0.7045,9.9850,28.711,29.3,1
9462412,-0.732,0.427,0.427,0.0108,-0.7248,9.9790,28.713,29.3,1
9472423,-0.671,0.427,0.488,0.0174,-0.7332,9.9946,28.734,29.3,1
9482435,-0.793,0.427,0.488,0.0251,-0.7099,9.9581,28.664,29.3,1
9492449,-0.793,0.427,0.427,0.0317,-0.7141,9.9796,28.705,29.3,1
9502453,-0.854,0.366,0.427,0.0389,-0.7081,9.9898,28.689,29.3,1
9512460,-0.793,0.427,0.366,0.0221,-0.7189,9.9898,28.721,29.3,1
9522464,-0.732,0.488,0.427,0.0108,-0.7123,9.9808,28.756,29.3,1
9532472,-0.732,0.427,0.427,0.0114,-0.7069,9.9940,28.688,29.3,1
9542475,-0.793,0.366,0.427,0.0209,-0.7308,9.9916,28.721,29.3,1
9552486,-0.854,0.488,0.488,0.0311,-0.7201,9.9934,28.664,29.3,1
9562486,-0.732,0.427,0.488,0.0132,-0.7117,9.9904,28.674,29.3,1
9572486,-0.732,0.427,0.427,-0.0018,-0.7248,10.0030,28.719,29.3,1
9582486,-0.793,0.427,0.366,0.0030,-0.7189,10.0060,28.732,29.3,1
9592496,-0.793,0.366,0.427,0.0150,-0.7111,10.0096,28.707,29.3,1
9602506,-0.732,0.366,0.488,0.0233,-0.7135,10.0000,28.711,29.3,1
9612518,-0.671,0.488,0.488,0.0126,-0.7081,9.9904,28.711,29.3,1
9622529,-0.793,0.488,0.488,0.0156,-0.6997,9.9730,28.717,29.3,1
9632534,-0.732,0.427,0.488,0.0138,-0.7260,9.9934,28.705,29.3,1
9642536,-0.732,0.427,0.427,0.0072,-0.7171,9.9952,28.717,29.3,1
9652536,-0.793,0.488,0.427,0.0257,-0.7087,10.0209,28.750,29.3,1
9662549,-0.732,0.549,0.427,0.0215,-0.7314,10.0036,28.682,29.3,1
9672562,-0.854,0.549,0.427,0.0257,-0.7189,9.9623,28.715,29.3,1
9682567,-0.854,0.488,0.427,0.0138,-0.7147,9.9802,28.682,29.3,1
9692575,-0.732,0.366,0.366,0.0287,-0.7153,9.9952,28.693,29.3,1
9702579,-0.793,0.427,0.427,0.0239,-0.7177,9.9922,28.717,29.3,1
9712590,-0.732,0.488,0.427,0.0215,-0.7093,10.0048,28.703,29.3,1
9722592,-0.854,0.427,0.427,0.0132,-0.7159,9.9892,28.678,29.3,1
9732595,-0.732,0.488,0.427,0.0084,-0.7033,9.9988,28.715,29.3,1
9742602,-0.793,0.488,0.488,0.0209,-0.7266,10.0102,28.688,29.3,1
9752613,-0.732,0.366,0.488,0.0323,-0.7195,9.9946,28.738,29.3,1
9762618,-0.854,0.427,0.488,0.0215,-0.6991,9.9952,28.711,29.3,1
9772628,-0.854,0.427,0.427,0.0120,-0.7105,9.9850,28.711,29.3,1
9782630,-0.732,0.427,0.488,0.0150,-0.7117,10.0018,28.711,29.3,1
9792631,-0.732,0.366,0.488,0.0126,-0.7159,9.9994,28.697,29.3,1
9802644,-0.793,0.427,0.427,0.0048,-0.7099,10.0054,28.705,29.3,1
9812649,-0.732,0.427,0.549,0.0126,-0.7302,10.0078,28.744,29.3,1
9822653,-0.793,0.427,0.488,0.0215,-0.7314,9.9850,28.707,29.3,1
9832654,-0.854,0.427,0.427,0.0186,-0.7207,9.9958,28.691,29.3,1
9842659,-0.793,0.488,0.427,0.0323,-0.7189,10.0036,28.689,29.3,1
9852661,-0.732,0.427,0.427,0.0287,-0.7117,9.9988,28.680,29.3,1
9862664,-0.854,0.488,0.427,0.0018,-0.7045,10.0018,28.713,29.3,1
9872676,-0.732,0.488,0.488,0.0215,-0.7003,10.0006,28.709,29.3,1
9882676,-0.732,0.366,0.305,0.0054,-0.7284,9.9946,28.709,29.3,1
9892687,-0.793,0.427,0.366,0.0156,-0.7219,10.0120,28.680,29.3,1
9902687,-0.793,0.488,0.427,0.0233,-0.7225,9.9862,28.678,29.3,1
9912694,-0.732,0.488,0.427,0.0150,-0.7183,10.0000,28.730,29.3,1
9922702,-0.793,0.488,0.427,0.0168,-0.7183,10.0281,28.740,29.3,1
9932710,-0.793,0.427,0.366,0.0174,-0.7207,9.9850,28.674,29.3,1
9942718,-0.793,0.427,0.488,-0.0042,-0.7021,9.9916,28.738,29.3,1
9952725,-0.793,0.427,0.427,0.0042,-0.7039,9.9862,28.738,29.3,1
9962735,-0.732,0.427,0.427,0.0227,-0.7362,9.9880,28.730,29.3,1
9972736,-0.854,0.488,0.427,0.0281,-0.7153,9.9958,28.688,29.3,1
9982750,-0.793,0.488,0.427,0.0132,-0.7129,10.0137,28.734,30.3,1
9992763,-0.671,0.427,0.488,0.0132,-0.7189,9.9659,28.715,29.3,1
10002763,-0.793,0.488,0.427,0.0012,-0.7260,9.9844,28.721,29.3,1
10012776,-0.793,0.366,0.427,0.0030,-0.7093,9.9970,28.705,29.3,1
10022781,-0.732,0.366,0.427,0.0078,-0.7051,9.9964,28.658,29.3,1
10032786,-0.732,0.427,0.488,0.0150,-0.7213,9.9886,28.721,30.3,1
10042800,-0.793,0.427,0.488,0.0102,-0.7093,9.9778,28.680,29.3,1
10052813,-0.732,0.488,0.366,0.0233,-0.6997,9.9922,28.699,29.3,1
10062813,-0.793,0.549,0.427,0.0150,-0.7165,10.0197,28.693,29.3,1
10072816,-0.732,0.488,0.488,0.0162,-0.7236,10.0096,28.717,29.3,1
10082824,-0.793,0.549,0.488,0.0233,-0.7207,10.0132,28.654,29.3,1
10092836,-0.732,0.488,0.427,0.0162,-0.7225,9.9982,28.715,29.3,1
10102843,-0.732,0.427,0.366,0.0162,-0.7027,9.9772,28.746,29.3,1
10112844,-0.610,0.427,0.305,0.0263,-0.7314,9.9970,28.682,29.3,1
10122844,-0.793,0.488,0.366,0.0251,-0.7177,9.9862,28.682,29.3,1
10132846,-0.793,0.427,0.366,0.0048,-0.7099,10.0137,28.736,29.3,1
10142846,-0.732,0.366,0.427,0.0180,-0.7350,10.0323,28.664,29.3,1
10152846,-0.732,0.427,0.488,0.0144,-0.7189,9.9832,28.693,29.3,1
10162847,-0.793,0.427,0.427,0.0150,-0.7147,9.9730,28.701,29.3,1
10172861,-0.793,0.427,0.366,0.0000,-0.7248,9.9832,28.738,29.3,1
10182862,-0.854,0.427,0.427,0.0072,-0.7374,9.9862,28.713,29.3,1
10192874,-0.793,0.488,0.488,0.0018,-0.7207,9.9832,28.717,29.3,1
10202885,-0.732,0.427,0.427,-0.0018,-0.7045,10.0000,28.721,29.3,1
10212889,-0.854,0.549,0.427,0.0054,-0.7302,10.0042,28.719,29.3,1
10222900,-0.793,0.488,0.488,0.0072,-0.7141,10.0024,28.688,29.3,1
10232900,-0.793,0.488,0.427,0.0257,-0.7207,10.0000,28.691,29.3,1
10242903,-0.854,0.366,0.488,0.0287,-0.7314,9.9898,28.732,29.3,1
10252907,-0.793,0.488,0.488,0.0186,-0.7219,9.9820,28.717,29.3,1
10262915,-0.732,0.488,0.427,0.0048,-0.7248,9.9880,28.705,29.3,1
10272915,-0.793,0.427,0.549,0.0078,-0.7195,10.0257,28.717,29.3,1
10282923,-0.732,0.488,0.488,0.0150,-0.7195,9.9994,28.725,29.3,1
10292932,-0.732,0.488,0.427,0.0072,-0.7075,10.0048,28.725,29.3,1
10302933,-0.732,0.427,0.427,0.0066,-0.7105,10.0084,28.703,29.3,1
10312943,-0.732,0.488,0.427,0.0287,-0.7356,9.9856,28.707,29.3,1
10322950,-0.793,0.488,0.427,0.0365,-0.7236,9.9874,28.725,29.3,1
10332961,-0.732,0.427,0.427,0.0120,-0.7338,10.0000,28.707,29.3,1
10342964,-0.793,0.488,0.427,0.0305,-0.7225,10.0179,28.709,29.3,1
10352966,-0.854,0.488,0.427,0.0090,-0.7242,9.9988,28.695,29.3,1
10362981,-0.732,0.427,0.488,0.0174,-0.7236,9.9707,28.709,29.3,1
10372984,-0.793,0.305,0.366,0.0066,-0.7296,9.9892,28.740,29.3,1
10382996,-0.732,0.488,0.366,0.0102,-0.7248,9.9826,28.715,29.3,1
10392998,-0.610,0.427,0.427,0.0198,-0.7087,10.0024,28.699,29.3,1
10403003,-0.732,0.427,0.427,0.0174,-0.7123,10.0132,28.660,29.3,1
10413004,-0.671,0.427,0.427,0.0329,-0.7093,10.0000,28.697,29.3,1
10423007,-0.854,0.488,0.427,0.0257,-0.7099,10.0185,28.674,29.3,1
10433011,-0.854,0.427,0.427,0.0150,-0.7123,9.9994,28.727,29.3,1
10443013,-0.732,0.488,0.427,-0.0048,-0.7123,9.9862,28.693,29.3,1
10453022,-0.732,0.549,0.427,0.0138,-0.7201,9.9970,28.695,29.3,1
10463022,-0.793,0.427,0.366,0.0204,-0.7195,9.9958,28.695,29.3,1
10473035,-0.793,0.427,0.488,0.0102,-0.7410,10.0120,28.699,29.3,1
10483035,-0.854,0.427,0.427,0.0102,-0.7201,10.0132,28.736,29.3,1
10493035,-0.915,0.427,0.488,0.0156,-0.7320,9.9892,28.697,29.3,1
10503039,-0.793,0.305,0.427,0.0126,-0.7105,9.9868,28.691,29.3,1
10513042,-0.732,0.427,0.427,0.0168,-0.7087,9.9916,28.727,29.3,1
10523053,-0.793,0.488,0.427,0.0030,-0.7135,10.0012,28.709,30.3,1
10533055,-0.793,0.427,0.427,0.0006,-0.7260,10.0060,28.695,29.3,1
10543068,-0.793,0.488,0.427,0.0048,-0.7159,10.0006,28.697,29.3,1
10553072,-0.793,0.427,0.366,0.0084,-0.7189,10.0018,28.701,29.3,1
10563083,-0.732,0.366,0.427,0.0174,-0.7069,9.9952,28.723,29.3,1
10573087,-0.732,0.427,0.427,0.0162,-0.7213,9.9928,28.701,29.3,1
10583090,-0.793,0.488,0.427,0.0186,-0.7266,10.0209,28.715,29.3,1
10593095,-0.732,0.427,0.488,0.0215,-0.7183,10.0072,28.715,29.3,1
10603110,-0.732,0.427,0.488,0.0144,-0.7225,10.0120,28.705,29.3,1
10613110,-0.671,0.488,0.366,0.0096,-0.7284,10.0096,28.711,29.3,1
10623114,-0.671,0.427,0.427,0.0204,-0.7225,10.0012,28.713,30.3,1
10633120,-0.732,0.488,0.488,0.0114,-0.7254,9.9910,28.713,29.3,1
10643134,-0.793,0.488,0.427,0.0120,-0.7081,9.9970,28.744,29.3,1
10653140,-0.793,0.427,0.427,0.0162,-0.7201,10.0036,28.682,29.3,1
10663151,-0.854,0.488,0.427,0.0174,-0.7248,10.0191,28.693,29.3,1
10673155,-0.732,0.366,0.427,0.0215,-0.7135,9.9940,28.709,30.3,1
10683166,-0.671,0.366,0.427,-0.0024,-0.6955,9.9832,28.740,29.3,1
10693176,-0.793,0.427,0.427,0.0114,-0.7159,9.9784,28.705,30.3,1
10703181,-0.732,0.427,0.427,0.0198,-0.7242,10.0006,28.672,30.3,1
10713181,-0.732,0.366,0.427,0.0269,-0.7207,9.9719,28.697,29.3,1
10723194,-0.793,0.427,0.427,0.0078,-0.7254,10.0203,28.707,30.3,1
10733207,-0.671,0.427,0.366,0.0144,-0.7165,9.9934,28.727,29.3,1
10743210,-0.732,0.427,0.427,0.0072,-0.7045,9.9820,28.680,29.3,1
10753225,-0.793,0.366,0.488,0.0066,-0.7141,10.0006,28.729,29.3,1
10763232,-0.793,0.427,0.427,0.0221,-0.7147,10.0299,28.725,29.3,1
10773242,-0.793,0.427,0.366,0.0251,-0.7219,10.0036,28.729,29.3,1
10783247,-0.671,0.427,0.366,0.0174,-0.7057,9.9916,28.711,29.3,1
10793247,-0.732,0.427,0.488,0.0233,-0.7254,10.0096,28.725,29.3,1
10803253,-0.732,0.488,0.427,0.0078,-0.7278,9.9928,28.725,29.3,1
10813255,-0.732,0.427,0.427,0.0162,-0.7099,9.9934,28.682,29.3,1
10823262,-0.732,0.366,0.427,0.0096,-0.7201,9.9994,28.676,29.3,1
10833274,-0.732,0.427,0.488,0.0054,-0.7135,9.9814,28.752,29.3,1
10843288,-0.732,0.488,0.427,0.0311,-0.7302,9.9862,28.695,29.3,1
10853289,-0.793,0.427,0.427,0.0150,-0.7278,9.9910,28.688,29.3,1
10863301,-0.732,0.366,0.427,0.0156,-0.7129,9.9820,28.680,29.3,1
10873301,-0.732,0.305,0.427,0.0042,-0.7278,9.9832,28.691,29.3,1
10883306,-0.793,0.488,0.427,0.0227,-0.7338,9.9970,28.701,29.3,1
10893316,-0.915,0.549,0.488,0.0198,-0.7099,10.0078,28.697,29.3,1
10903327,-0.854,0.488,0.488,0.0006,-0.7153,9.9958,28.682,29.3,1
10913329,-0.854,0.488,0.427,-0.0030,-0.7063,10.0006,28.684,29.3,1
10923332,-0.793,0.427,0.488,0.0000,-0.7117,10.0030,28.699,29.3,1
10933338,-0.671,0.427,0.366,0.0287,-0.7153,9.9952,28.701,29.3,1
10943349,-0.793,0.427,0.427,0.0162,-0.7207,9.9970,28.742,29.3,1
10953350,-0.732,0.488,0.427,0.0156,-0.7129,9.9934,28.727,29.3,1
10963362,-0.732,0.488,0.366,0.0018,-0.7165,9.9910,28.666,29.3,1
10973366,-0.732,0.488,0.488,0.0221,-0.7302,10.0090,28.666,29.3,1
10983366,-0.793,0.488,0.488,0.0174,-0.7057,10.0006,28.729,29.3,1
10993380,-0.732,0.366,0.427,0.0227,-0.7225,9.9910,28.701,29.3,1
11003392,-0.793,0.427,0.427,0.0162,-0.7159,9.9940,28.740,29.3,1
11013405,-0.732,0.488,0.427,0.0192,-0.7248,9.9976,28.686,29.3,1
11023405,-0.732,0.427,0.427,0.0245,-0.7254,10.0018,28.732,29.3,1
11033411,-0.671,0.488,0.488,0.0329,-0.7266,9.9832,28.730,30.3,1
11043425,-0.732,0.488,0.488,0.0138,-0.7248,9.9982,28.682,29.3,1
11053426,-0.793,0.427,0.488,0.0263,-0.7141,10.0066,28.676,30.3,1
11063440,-0.732,0.488,0.427,0.0120,-0.7045,10.0006,28.707,29.3,1
11073445,-0.732,0.488,0.427,0.0102,-0.7093,9.9928,28.736,30.3,1
11083451,-0.793,0.427,0.427,0.0114,-0.7159,9.9695,28.719,29.3,1
11093453,-0.793,0.427,0.427,0.0132,-0.7183,9.9790,28.701,29.3,1
11103460,-0.732,0.427,0.488,0.0186,-0.7284,10.0066,28.762,29.3,1
11113471,-0.732,0.427,0.488,0.0090,-0.7135,10.0060,28.740,29.3,1
11123475,-0.732,0.427,0.488,-0.0072,-0.7171,9.9856,28.715,29.3,1
11133486,-0.793,0.488,0.366,0.0281,-0.7302,9.9826,28.666,29.3,1
11143499,-0.793,0.427,0.427,0.0168,-0.7266,10.0042,28.666,29.3,1
11153505,-0.732,0.427,0.488,0.0257,-0.7141,10.0012,28.697,29.3,1
11163518,-0.732,0.488,0.488,0.0204,-0.7242,10.0120,28.730,29.3,1
11173521,-0.732,0.488,0.427,-0.0024,-0.7189,9.9958,28.699,29.3,1
11183530,-0.732,0.427,0.427,0.0174,-0.7332,10.0084,28.736,29.3,1
11193536,-0.732,0.488,0.549,0.0132,-0.7189,10.0042,28.711,29.3,1
11203549,-0.793,0.488,0.427,0.0138,-0.7045,9.9790,28.701,29.3,1
11213560,-0.793,0.427,0.427,0.0126,-0.7201,9.9832,28.693,30.3,1
11223566,-0.671,0.488,0.427,0.0096,-0.7147,9.9982,28.693,30.3,1
11233577,-0.793,0.427,0.488,0.0198,-0.7027,10.0078,28.719,29.3,1
11243590,-0.793,0.427,0.488,0.0221,-0.7183,10.0209,28.734,29.3,1
11253602,-0.732,0.366,0.488,0.0120,-0.7063,10.0167,28.715,29.3,1
11263603,-0.793,0.366,0.427,0.0108,-0.7099,9.9886,28.719,29.3,1
11273613,-0.732,0.427,0.427,0.0036,-0.7141,10.0048,28.701,29.3,1
11283624,-0.732,0.427,0.366,0.0108,-0.7207,10.0084,28.730,29.3,1
11293631,-0.793,0.549,0.427,0.0090,-0.7242,10.0024,28.703,29.3,1
11303633,-0.793,0.427,0.427,0.0102,-0.7123,9.9832,28.713,29.3,1
11313644,-0.793,0.427,0.427,0.0198,-0.7272,9.9802,28.713,29.3,1
11323649,-0.793,0.427,0.427,0.0204,-0.7057,9.9982,28.766,29.3,1
11333660,-0.793,0.427,0.427,0.0084,-0.7063,9.9904,28.715,29.3,1
11343661,-0.854,0.427,0.427,0.0114,-0.7051,9.9934,28.711,29.3,1
11353669,-0.793,0.488,0.366,0.0174,-0.7117,9.9952,28.684,29.3,1
11363672,-0.732,0.427,0.366,0.0186,-0.7165,9.9814,28.775,29.3,1
11373679,-0.732,0.427,0.488,0.0150,-0.7195,9.9748,28.725,29.3,1
11383694,-0.793,0.427,0.427,0.0311,-0.7063,9.9916,28.754,30.3,1
11393700,-0.793,0.427,0.366,0.0198,-0.7171,10.0018,28.689,29.3,1
11403702,-0.793,0.427,0.366,0.0120,-0.7129,9.9868,28.725,29.3,1
11413714,-0.671,0.427,0.427,0.0096,-0.7183,9.9808,28.742,29.3,1
11423725,-0.732,0.549,0.427,0.0096,-0.7254,9.9832,28.727,30.3,1
11433739,-0.793,0.488,0.488,0.0108,-0.7093,9.9808,28.686,29.3,1
11443752,-0.732,0.427,0.488,0.0072,-0.7189,9.9994,28.701,29.3,1
11453765,-0.854,0.427,0.488,0.0126,-0.7129,10.0305,28.732,30.3,1
11463768,-0.671,0.427,0.488,0.0215,-0.7099,9.9928,28.693,29.3,1
11473778,-0.793,0.427,0.366,0.0120,-0.7015,9.9754,28.705,29.3,1
11483791,-0.793,0.427,0.366,0.0054,-0.7296,10.0179,28.705,30.3,1
11493801,-0.732,0.488,0.427,0.0102,-0.7117,10.0126,28.721,30.3,1
11503813,-0.732,0.488,0.427,0.0066,-0.7027,9.9832,28.684,30.3,1
11513827,-0.732,0.488,0.366,-0.0108,-0.7195,9.9904,28.729,30.3,1
11523827,-0.793,0.488,0.427,0.0192,-0.7129,10.0000,28.670,30.3,1
11533832,-0.793,0.488,0.488,-0.0114,-0.7129,10.0024,28.730,30.3,1
11543839,-0.732,0.488,0.366,0.0114,-0.7368,10.0120,28.699,30.3,1
11553852,-0.793,0.366,0.427,0.0114,-0.7386,10.0060,28.715,29.3,1
11563852,-0.671,0.366,0.427,0.0090,-0.7039,9.9904,28.750,29.3,1
11573854,-0.732,0.427,0.427,0.0180,-0.7147,9.9928,28.713,29.3,1
11583867,-0.793,0.427,0.488,0.0042,-0.7219,9.9862,28.699,30.3,1
11593877,-0.671,0.427,0.488,0.0233,-0.7117,9.9826,28.727,29.3,1
11603889,-0.732,0.427,0.427,0.0192,-0.7135,10.0167,28.701,30.3,1
11613900,-0.793,0.366,0.427,0.0186,-0.7207,10.0066,28.666,29.3,1
11623902,-0.732,0.366,0.488,0.0084,-0.7111,10.0114,28.691,30.3,1
11633913,-0.732,0.427,0.427,0.0144,-0.7075,10.0012,28.717,30.3,1
11643927,-0.793,0.427,0.427,0.0239,-0.7284,10.0126,28.744,30.3,1
11653937,-0.793,0.488,0.427,0.0126,-0.7207,9.9952,28.744,30.3,1
11663943,-0.793,0.427,0.366,0.0180,-0.7356,9.9952,28.721,29.3,1
11673952,-0.793,0.427,0.488,0.0257,-0.7230,10.0036,28.732,30.3,1
11683965,-0.854,0.427,0.488,0.0299,-0.7123,10.0060,28.742,30.3,1
11693965,-0.793,0.427,0.427,0.0006,-0.7195,10.0137,28.738,29.3,1
11703976,-0.732,0.366,0.427,-0.0036,-0.7254,10.0126,28.701,29.3,1
11713989,-0.854,0.427,0.427,0.0090,-0.7141,9.9946,28.686,30.3,1
11723994,-0.793,0.366,0.366,0.0156,-0.7207,10.0006,28.715,29.3,1
11733994,-0.793,0.427,0.366,0.0245,-0.7147,9.9886,28.730,30.3,1
11744007,-0.732,0.488,0.488,0.0245,-0.7129,9.9862,28.723,29.3,1
11754009,-0.793,0.488,0.488,0.0096,-0.7236,10.0072,28.689,29.3,1
11764022,-0.793,0.549,0.427,0.0012,-0.7057,9.9713,28.721,30.3,1
11774026,-0.793,0.488,0.488,0.0186,-0.7141,9.9844,28.715,29.3,1
11784037,-0.671,0.427,0.427,0.0353,-0.7003,9.9886,28.709,30.3,1
11794045,-0.732,0.427,0.427,0.0084,-0.7177,10.0102,28.707,30.3,1
11804049,-0.854,0.427,0.427,0.0150,-0.7087,10.0072,28.684,29.3,1
11814060,-0.793,0.427,0.427,0.0209,-0.7260,9.9952,28.707,30.3,1
11824060,-0.671,0.366,0.427,0.0215,-0.7117,10.0120,28.707,29.3,1
11834071,-0.732,0.488,0.427,0.0317,-0.7009,10.0275,28.725,29.3,1
11844072,-0.732,0.488,0.427,0.0120,-0.7177,10.0054,28.713,29.3,1
11854085,-0.732,0.427,0.427,0.0138,-0.7207,9.9934,28.686,29.3,1
11864087,-0.732,0.427,0.427,0.0221,-0.7248,10.0084,28.744,30.3,1
11874103,-0.793,0.427,0.427,0.0132,-0.7302,9.9958,28.648,29.3,1
11884103,-0.793,0.427,0.427,0.0132,-0.7111,9.9838,28.701,30.3,1
11894107,-0.671,0.488,0.427,0.0144,-0.7051,10.0018,28.723,30.3,1
11904116,-0.671,0.427,0.488,0.0287,-0.7230,9.9832,28.744,30.3,1
11914125,-0.732,0.488,0.488,0.0263,-0.7248,9.9892,28.707,30.3,1
11924133,-0.793,0.488,0.427,0.0102,-0.7236,10.0143,28.652,30.3,1
11934140,-0.915,0.488,0.366,0.0126,-0.7195,9.9970,28.729,29.3,1
11944149,-0.732,0.366,0.427,0.0168,-0.7171,10.0048,28.684,29.3,1
11954156,-0.671,0.427,0.549,0.0287,-0.7201,9.9898,28.715,30.3,1
11964161,-0.915,0.427,0.427,0.0293,-0.7099,9.9820,28.676,30.3,1
11974164,-0.732,0.427,0.427,0.0060,-0.7069,9.9880,28.697,30.3,1
11984171,-0.793,0.427,0.427,0.0120,-0.7087,9.9952,28.748,30.3,1
11994177,-0.732,0.366,0.488,0.0353,-0.7171,9.9730,28.748,30.3,1
12004183,-0.793,0.488,0.427,0.0227,-0.7087,9.9940,28.734,29.3,1
12014196,-0.732,0.488,0.427,0.0012,-0.7021,10.0108,28.756,30.3,1
12024201,-0.793,0.488,0.427,0.0066,-0.7135,10.0060,28.719,30.3,1
12034214,-0.793,0.427,0.488,0.0239,-0.7338,10.0072,28.701,30.3,1
12044225,-0.793,0.427,0.488,-0.0012,-0.7225,10.0102,28.709,30.3,1
12054227,-0.793,0.427,0.427,0.0066,-0.7207,10.0114,28.713,30.3,1
12064240,-0.854,0.366,0.366,0.0204,-0.7225,9.9730,28.744,29.3,1
12074244,-0.854,0.427,0.488,0.0198,-0.7392,9.9683,28.715,30.3,1
12084244,-0.732,0.488,0.427,0.0042,-0.7153,9.9886,28.738,30.3,1
12094247,-0.793,0.427,0.427,0.0012,-0.7087,9.9916,28.684,30.3,1
12104247,-0.732,0.366,0.366,0.0090,-0.7207,9.9695,28.707,30.3,1
12114247,-0.793,0.488,0.427,0.0245,-0.7195,10.0042,28.734,30.3,1
12124255,-0.793,0.549,0.488,-0.0024,-0.7123,10.0084,28.711,30.3,1
12134259,-0.793,0.427,0.366,0.0078,-0.7051,10.0143,28.713,29.3,1
12144262,-0.793,0.488,0.427,0.0108,-0.7051,9.9928,28.707,30.3,1
12154262,-0.793,0.488,0.488,0.0108,-0.7338,10.0137,28.742,30.3,1
12164273,-0.793,0.427,0.427,0.0174,-0.7057,9.9868,28.742,30.3,1
12174277,-0.732,0.427,0.488,0.0215,-0.7093,9.9922,28.705,30.3,1
12184285,-0.793,0.549,0.488,0.0090,-0.7063,10.0054,28.695,30.3,1
12194290,-0.793,0.549,0.427,0.0180,-0.7266,10.0006,28.662,30.3,1
12204301,-0.793,0.427,0.366,0.0239,-0.7171,9.9904,28.734,30.3,1
12214301,-0.793,0.488,0.427,0.0114,-0.7392,9.9934,28.762,29.3,1
12224303,-0.793,0.427,0.427,0.0150,-0.7171,9.9946,28.717,30.3,1
12234314,-0.732,0.427,0.427,0.0209,-0.7230,10.0024,28.707,30.3,1
12244323,-0.732,0.488,0.488,0.0102,-0.7225,10.0126,28.738,30.3,1
12254336,-0.732,0.427,0.488,0.0114,-0.7332,9.9880,28.711,29.3,1
12264336,-0.732,0.488,0.427,0.0174,-0.7129,9.9844,28.709,30.3,1
12274336,-0.732,0.427,0.366,0.0138,-0.7081,10.0024,28.689,30.3,1
12284347,-0.732,0.427,0.427,0.0060,-0.7183,9.9988,28.756,30.3,1
12294358,-0.854,0.427,0.427,0.0168,-0.7129,9.9784,28.727,30.3,1
12304369,-0.854,0.488,0.488,0.0335,-0.7123,10.0048,28.732,30.3,1
12314384,-0.732,0.549,0.427,0.0144,-0.7153,9.9952,28.717,30.3,1
12324390,-0.793,0.427,0.366,0.0006,-0.7207,10.0018,28.705,30.3,1
12334394,-0.793,0.427,0.549,0.0186,-0.7213,9.9958,28.705,30.3,1
12344403,-0.793,0.488,0.488,0.0090,-0.7183,9.9796,28.703,29.3,1
12354414,-0.793,0.488,0.427,0.0168,-0.7177,9.9958,28.678,30.3,1
12364425,-0.732,0.427,0.549,0.0323,-0.7183,9.9988,28.752,30.3,1
12374438,-0.793,0.427,0.427,0.0102,-0.7290,9.9832,28.709,30.3,1
12384442,-0.732,0.488,0.427,0.0162,-0.7302,9.9826,28.740,30.3,1
12394456,-0.793,0.427,0.366,0.0054,-0.7344,9.9844,28.695,30.3,1
12404460,-0.793,0.427,0.488,0.0102,-0.7230,9.9874,28.750,30.3,1
12414473,-0.732,0.427,0.488,0.0114,-0.6985,10.0000,28.686,30.3,1
12424475,-0.671,0.366,0.366,0.0012,-0.7105,9.9994,28.703,30.3,1
12434475,-0.671,0.549,0.427,0.0042,-0.7242,9.9958,28.738,30.3,1
12444486,-0.732,0.488,0.427,0.0245,-0.7003,9.9916,28.688,30.3,1
12454486,-0.915,0.488,0.427,0.0144,-0.6931,9.9922,28.699,30.3,1
12464495,-0.732,0.488,0.427,0.0209,-0.7129,10.0000,28.781,30.3,1
12474496,-0.732,0.427,0.366,0.0054,-0.7141,9.9760,28.748,30.3,1
12484503,-0.793,0.488,0.427,0.0072,-0.7284,10.0006,28.703,30.3,1
12494503,-0.854,0.488,0.427,0.0078,-0.7428,9.9982,28.713,30.3,1
12504506,-0.793,0.427,0.305,0.0012,-0.7219,9.9922,28.713,30.3,1
12514514,-0.793,0.427,0.427,0.0066,-0.7141,9.9862,28.697,30.3,1
12524518,-0.732,0.427,0.488,0.0012,-0.7117,9.9940,28.721,29.3,1
12534518,-0.793,0.488,0.427,0.0162,-0.7219,9.9988,28.715,30.3,1
12544521,-0.671,0.549,0.549,0.0245,-0.7189,9.9952,28.689,30.3,1
12554536,-0.732,0.427,0.488,0.0192,-0.7225,9.9898,28.764,30.3,1
12564542,-0.793,0.427,0.488,0.0209,-0.7213,9.9820,28.715,30.3,1
12574551,-0.732,0.427,0.427,0.0305,-0.7213,9.9976,28.684,30.3,1
12584551,-0.732,0.427,0.427,0.0215,-0.7165,9.9910,28.697,30.3,1
12594560,-0.732,0.488,0.427,0.0287,-0.7344,9.9862,28.707,30.3,1
12604572,-0.793,0.488,0.427,0.0090,-0.7189,9.9940,28.785,30.3,1
12614572,-0.854,0.488,0.427,0.0084,-0.7087,9.9760,28.711,30.3,1
12624577,-0.793,0.488,0.427,0.0221,-0.7165,9.9820,28.711,30.3,1
12634579,-0.793,0.427,0.427,0.0012,-0.7003,9.9922,28.699,30.3,1
12644592,-0.854,0.366,0.488,0.0198,-0.7027,10.0155,28.770,30.3,1
12654595,-0.732,0.427,0.610,0.0114,-0.7039,9.9898,28.742,30.3,1
12664611,-0.732,0.427,0.488,0.0305,-0.7171,9.9910,28.691,30.3,1
12674613,-0.793,0.366,0.427,0.0293,-0.7015,9.9850,28.691,30.3,1
12684615,-0.854,0.427,0.427,0.0347,-0.7099,10.0000,28.686,30.3,1
12694626,-0.793,0.488,0.427,0.0251,-0.7165,10.0006,28.701,30.3,1
12704639,-0.793,0.488,0.427,0.0150,-0.7302,9.9934,28.680,30.3,1
12714639,-0.793,0.488,0.366,0.0090,-0.7171,9.9934,28.701,30.3,1
12724639,-0.854,0.366,0.427,-0.0042,-0.7093,9.9778,28.732,30.3,1
12734641,-0.732,0.427,0.488,0.0198,-0.7141,10.0245,28.750,30.3,1
12744646,-0.732,0.427,0.488,0.0072,-0.7219,10.0108,28.729,30.3,1
12754660,-0.793,0.427,0.366,0.0066,-0.7189,10.0018,28.777,30.3,1
12764661,-0.732,0.427,0.427,0.0054,-0.7129,9.9629,28.752,30.3,1
12774676,-0.793,0.366,0.488,0.0042,-0.7254,9.9934,28.703,30.3,1
12784687,-0.793,0.427,0.427,0.0042,-0.7195,10.0000,28.713,30.3,1
12794689,-0.793,0.427,0.488,0.0132,-0.7141,10.0036,28.777,30.3,1
12804702,-0.732,0.427,0.488,0.0144,-0.7033,9.9754,28.682,30.3,1
12814715,-0.671,0.427,0.427,0.0407,-0.7236,9.9832,28.682,30.3,1
12824722,-0.793,0.488,0.427,0.0162,-0.7242,10.0006,28.723,30.3,1
12834736,-0.793,0.305,0.366,0.0120,-0.7248,9.9970,28.684,30.3,1
12844748,-0.732,0.427,0.427,0.0132,-0.7242,10.0096,28.684,30.3,1
12854752,-0.732,0.427,0.488,0.0156,-0.7129,10.0066,28.762,30.3,1
12864755,-0.793,0.427,0.427,0.0054,-0.7278,10.0042,28.719,30.3,1
12874767,-0.732,0.427,0.488,0.0180,-0.7332,10.0000,28.715,30.3,1
12884770,-0.732,0.488,0.427,0.0108,-0.7081,9.9982,28.691,30.3,1
12894778,-0.732,0.488,0.427,0.0150,-0.7093,10.0006,28.727,30.3,1
12904782,-0.854,0.427,0.488,0.0359,-0.7129,10.0048,28.729,30.3,1
12914790,-0.793,0.427,0.488,0.0221,-0.7045,9.9898,28.727,30.3,1
12924796,-0.732,0.488,0.427,0.0054,-0.7033,10.0347,28.717,30.3,1
12934798,-0.793,0.427,0.427,0.0042,-0.7057,10.0024,28.729,30.3,1
12944809,-0.732,0.488,0.488,0.0209,-0.7099,9.9988,28.705,30.3,1
12954811,-0.732,0.427,0.427,0.0090,-0.7171,10.0221,28.717,29.3,1
12964822,-0.732,0.427,0.427,0.0209,-0.7440,10.0054,28.715,30.3,1
12974827,-0.793,0.427,0.427,0.0353,-0.7111,9.9970,28.717,30.3,1
12984837,-0.854,0.427,0.427,0.0060,-0.6973,10.0018,28.699,30.3,1
12994842,-0.793,0.427,0.427,0.0239,-0.7230,9.9814,28.719,30.3,1
13004844,-0.793,0.366,0.488,0.0090,-0.7147,9.9844,28.686,30.3,1
13014851,-0.732,0.488,0.488,-0.0012,-0.7242,9.9844,28.686,30.3,1
13024854,-0.732,0.427,0.488,0.0150,-0.7272,9.9898,28.742,30.3,1
13034859,-0.793,0.427,0.366,0.0162,-0.6991,9.9970,28.744,30.3,1
13044861,-0.793,0.427,0.427,0.0156,-0.6931,9.9994,28.732,30.3,1
13054862,-0.793,0.427,0.427,0.0030,-0.7057,9.9713,28.754,30.3,1
13064867,-0.793,0.427,0.366,0.0180,-0.7015,10.0191,28.715,30.3,1
13074870,-0.732,0.427,0.427,0.0054,-0.7201,10.0263,28.707,30.3,1
13084874,-0.793,0.427,0.427,-0.0060,-0.7135,9.9922,28.695,30.3,1
13094881,-0.854,0.427,0.427,0.0198,-0.7201,9.9910,28.736,30.3,1
13104885,-0.793,0.427,0.488,0.0245,-0.7201,9.9946,28.715,30.3,1
13114889,-0.854,0.427,0.427,0.0180,-0.7165,10.0132,28.719,30.3,1
13124889,-0.793,0.427,0.427,0.0168,-0.7129,10.0072,28.711,30.3,1
13134892,-0.732,0.366,0.427,0.0102,-0.7165,9.9982,28.701,30.3,1
13144904,-0.732,0.366,0.427,0.0132,-0.7201,9.9976,28.748,30.3,1
13154915,-0.671,0.488,0.427,0.0126,-0.7296,10.0114,28.707,30.3,1
13164915,-0.793,0.488,0.427,0.0204,-0.7177,10.0179,28.709,30.3,1
13174918,-0.732,0.488,0.488,0.0078,-0.7236,10.0078,28.723,30.3,1
13184918,-0.793,0.488,0.427,0.0000,-0.7183,10.0042,28.723,30.3,1
13194920,-0.793,0.488,0.366,0.0150,-0.7225,10.0006,28.705,30.3,1
13204931,-0.732,0.488,0.366,0.0269,-0.7147,9.9982,28.742,30.3,1
13214933,-0.854,0.488,0.427,0.0114,-0.7242,10.0006,28.705,30.3,1
13224933,-0.915,0.488,0.488,-0.0066,-0.7147,9.9994,28.734,30.3,1
13234935,-0.793,0.549,0.488,0.0120,-0.7242,10.0048,28.701,30.3,1
13244944,-0.732,0.427,0.427,0.0269,-0.7242,9.9844,28.746,30.3,1
13254953,-0.732,0.549,0.427,0.0156,-0.7207,10.0197,28.662,30.3,1
13264965,-0.793,0.488,0.488,0.0227,-0.7045,9.9862,28.717,30.3,1
13274973,-0.854,0.427,0.427,0.0192,-0.7296,9.9940,28.707,30.3,1
13284979,-0.793,0.488,0.427,-0.0006,-0.7009,10.0114,28.746,30.3,1
13294980,-0.732,0.427,0.427,0.0078,-0.7183,9.9946,28.740,30.3,1
13304994,-0.732,0.427,0.427,0.0144,-0.7266,9.9994,28.715,30.3,1
13314999,-0.732,0.488,0.488,0.0257,-0.7290,9.9952,28.705,30.3,1
13325003,-0.732,0.488,0.488,0.0198,-0.7111,10.0072,28.705,30.3,1
13335007,-0.793,0.366,0.488,0.0269,-0.7009,9.9892,28.744,30.3,1
13345020,-0.732,0.427,0.427,0.0227,-0.7003,10.0072,28.703,30.3,1
13355029,-0.732,0.488,0.427,0.0108,-0.7135,10.0048,28.703,30.3,1
13365037,-0.732,0.488,0.427,0.0084,-0.7117,9.9892,28.682,30.3,1
13375044,-0.793,0.427,0.427,0.0072,-0.7230,9.9862,28.707,30.3,1
13385044,-0.854,0.427,0.427,0.0096,-0.7230,10.0072,28.699,30.3,1
13395055,-0.854,0.427,0.366,0.0168,-0.7266,10.0072,28.746,30.3,1
13405055,-0.732,0.488,0.488,0.0024,-0.7290,9.9886,28.701,30.3,1
13415060,-0.732,0.427,0.488,0.0132,-0.7219,9.9880,28.658,30.3,1
13425074,-0.732,0.427,0.488,0.0221,-0.7039,9.9982,28.717,30.3,1
13435085,-0.732,0.427,0.488,0.0180,-0.6955,9.9964,28.664,30.3,1
13445085,-0.732,0.427,0.427,0.0204,-0.7177,9.9814,28.709,30.3,1
13455095,-0.732,0.366,0.427,0.0126,-0.7254,9.9904,28.727,30.3,1
13465103,-0.732,0.427,0.427,0.0174,-0.7093,9.9928,28.682,30.3,1
13475107,-0.732,0.488,0.488,-0.0108,-0.7111,9.9994,28.719,30.3,1
13485120,-0.793,0.488,0.427,0.0030,-0.7141,9.9988,28.715,30.3,1
13495125,-0.793,0.427,0.488,0.0000,-0.6943,10.0090,28.701,30.3,1
13505134,-0.793,0.427,0.427,-0.0006,-0.7009,10.0078,28.748,30.3,1
13515136,-0.793,0.427,0.488,-0.0012,-0.7111,10.0102,28.750,30.3,1
13525138,-0.732,0.488,0.488,0.0102,-0.7081,10.0030,28.750,30.3,1
13535151,-0.732,0.366,0.427,0.0048,-0.7171,10.0012,28.752,30.3,1
13545151,-0.732,0.427,0.488,0.0102,-0.7189,10.0132,28.725,30.3,1
13555151,-0.732,0.488,0.427,0.0263,-0.7266,10.0036,28.721,30.3,1
13565151,-0.915,0.488,0.427,0.0114,-0.7266,9.9946,28.715,30.3,1
13575151,-0.671,0.488,0.488,0.0204,-0.7039,9.9826,28.676,30.3,1
13585153,-0.732,0.427,0.488,0.0281,-0.7069,10.0126,28.711,30.3,1
13595161,-0.671,0.366,0.427,0.0060,-0.7111,9.9772,28.711,30.3,1
13605164,-0.793,0.427,0.427,-0.0066,-0.7081,10.0012,28.697,30.3,1
13615177,-0.854,0.488,0.427,0.0150,-0.7117,9.9976,28.740,30.3,1
13625179,-0.854,0.427,0.488,0.0180,-0.7159,9.9922,28.727,30.3,1
13635192,-0.732,0.427,0.488,0.0096,-0.7171,9.9868,28.689,30.3,1
13645198,-0.732,0.427,0.549,0.0072,-0.7123,9.9922,28.715,30.3,1
13655207,-0.732,0.366,0.427,0.0000,-0.7236,10.0006,28.656,30.3,1
13665213,-0.793,0.427,0.427,0.0209,-0.7266,9.9928,28.721,30.3,1
13675227,-0.793,0.488,0.366,0.0186,-0.7201,10.0018,28.713,30.3,1
13685232,-0.793,0.427,0.427,-0.0024,-0.7219,9.9868,28.758,30.3,1
13695242,-0.793,0.427,0.427,0.0108,-0.7236,9.9826,28.758,30.3,1
13705255,-0.732,0.488,0.366,0.0239,-0.7171,9.9994,28.664,30.3,1
13715260,-0.793,0.488,0.427,0.0192,-0.7129,10.0227,28.762,30.3,1
13725274,-0.793,0.427,0.427,0.0114,-0.7087,9.9928,28.764,30.3,1
13735277,-0.732,0.488,0.488,0.0192,-0.7045,9.9874,28.717,30.3,1
13745288,-0.732,0.427,0.488,0.0126,-0.7051,9.9916,28.727,30.3,1
13755301,-0.793,0.427,0.488,0.0186,-0.7111,9.9982,28.711,30.3,1
13765301,-0.854,0.488,0.488,0.0233,-0.7099,9.9988,28.754,30.3,1
13775303,-0.793,0.427,0.488,0.0150,-0.7087,9.9994,28.732,30.3,1
13785305,-0.793,0.427,0.427,0.0156,-0.7171,10.0096,28.734,30.3,1
13795305,-0.854,0.488,0.427,0.0257,-0.7236,10.0114,28.746,30.3,1
13805316,-0.793,0.488,0.427,0.0036,-0.7308,9.9796,28.686,30.3,1
13815318,-0.854,0.427,0.427,0.0132,-0.7225,10.0084,28.711,30.3,1
13825323,-0.854,0.427,0.488,0.0168,-0.7171,10.0030,28.701,30.3,1
13835335,-0.793,0.549,0.549,0.0090,-0.7230,9.9934,28.725,30.3,1
13845349,-0.732,0.427,0.488,0.0090,-0.7135,10.0143,28.734,30.3,1
13855362,-0.732,0.427,0.427,0.0150,-0.7195,10.0048,28.713,29.3,1
13865364,-0.793,0.427,0.366,0.0006,-0.7147,10.0084,28.713,30.3,1
13875377,-0.793,0.366,0.488,0.0156,-0.7081,9.9707,28.725,30.3,1
13885381,-0.793,0.488,0.488,0.0293,-0.7159,9.9856,28.727,30.3,1
13895392,-0.793,0.488,0.427,0.0054,-0.7045,9.9838,28.703,30.3,1
13905394,-0.793,0.427,0.427,0.0048,-0.7302,9.9880,28.707,30.3,1
13915399,-0.793,0.488,0.427,0.0144,-0.7003,10.0018,28.689,30.3,1
13925405,-0.793,0.427,0.488,0.0090,-0.7230,9.9784,28.738,30.3,1
13935405,-0.793,0.427,0.488,0.0108,-0.7254,10.0108,28.707,30.3,1
13945410,-0.854,0.427,0.366,0.0245,-0.7075,10.0072,28.727,30.3,1
13955410,-0.793,0.427,0.427,0.0227,-0.7111,9.9886,28.727,30.3,1
13965423,-0.671,0.427,0.427,0.0126,-0.7159,9.9970,28.701,30.3,1
13975430,-0.854,0.427,0.488,0.0108,-0.7081,9.9994,28.715,30.3,1
13985434,-0.793,0.488,0.488,0.0018,-0.7099,9.9802,28.701,30.3,1
13995438,-0.793,0.427,0.427,0.0269,-0.7117,9.9820,28.742,30.3,1
14005451,-0.854,0.427,0.427,0.0287,-0.7135,10.0012,28.699,30.3,1
14015459,-0.854,0.427,0.549,0.0168,-0.6997,9.9886,28.732,30.3,1
14025460,-0.854,0.427,0.488,0.0126,-0.7075,9.9904,28.732,30.3,1
14035471,-0.671,0.488,0.427,0.0102,-0.7051,9.9814,28.742,30.3,1
14045475,-0.732,0.427,0.488,0.0018,-0.7105,9.9856,28.764,30.3,1
14055488,-0.793,0.488,0.427,0.0180,-0.7021,9.9838,28.723,30.3,1
14065490,-0.732,0.427,0.427,0.0084,-0.7356,9.9719,28.709,30.3,1
14075503,-0.793,0.427,0.427,0.0114,-0.7260,9.9850,28.730,30.3,1
14085514,-0.732,0.427,0.427,0.0257,-0.7087,9.9958,28.658,30.3,1
14095521,-0.732,0.488,0.427,0.0162,-0.7033,9.9802,28.703,30.3,1
14105527,-0.793,0.427,0.427,0.0150,-0.7153,9.9952,28.695,30.3,1
14115529,-0.854,0.427,0.427,0.0192,-0.7195,9.9970,28.691,30.3,1
14125529,-0.854,0.488,0.427,0.0186,-0.7201,9.9994,28.746,30.3,1
14135531,-0.793,0.366,0.488,0.0186,-0.7153,10.0143,28.746,30.3,1
14145533,-0.671,0.366,0.488,0.0168,-0.7183,10.0233,28.721,30.3,1
14155544,-0.854,0.488,0.427,0.0156,-0.7087,9.9748,28.701,30.3,1
14165551,-0.793,0.427,0.427,0.0102,-0.6991,9.9940,28.732,30.3,1
14175562,-0.793,0.488,0.427,0.0192,-0.7183,10.0137,28.725,30.3,1
14185575,-0.732,0.427,0.427,0.0233,-0.7027,9.9952,28.703,30.3,1
14195588,-0.793,0.427,0.427,0.0114,-0.7183,10.0048,28.703,30.3,1
14205594,-0.732,0.427,0.427,0.0204,-0.7434,9.9916,28.730,30.3,1
14215607,-0.793,0.488,0.427,0.0317,-0.7344,10.0102,28.680,30.3,1
14225615,-0.793,0.488,0.427,0.0215,-0.7021,9.9958,28.742,30.3,1
14235618,-0.732,0.488,0.366,0.0108,-0.7009,9.9922,28.699,30.3,1
14245618,-0.793,0.427,0.427,0.0204,-0.6997,9.9970,28.680,30.3,1
14255631,-0.732,0.366,0.427,0.0180,-0.7147,9.9838,28.684,30.3,1
14265644,-0.732,0.427,0.488,0.0078,-0.7033,10.0024,28.734,30.3,1
14275645,-0.854,0.488,0.488,0.0096,-0.7129,10.0018,28.709,30.3,1
14285649,-0.793,0.427,0.488,0.0078,-0.7219,10.0173,28.742,30.3,1
14295660,-0.854,0.427,0.488,0.0251,-0.7129,10.0120,28.713,30.3,1
14305674,-0.854,0.366,0.427,0.0192,-0.7141,9.9976,28.682,30.3,1
14315687,-0.793,0.427,0.366,0.0281,-0.7117,9.9928,28.742,30.3,1
14325687,-0.854,0.427,0.366,0.0263,-0.7177,9.9898,28.701,30.3,1
14335691,-0.732,0.488,0.427,0.0293,-0.7201,9.9910,28.709,30.3,1
14345702,-0.671,0.366,0.488,-0.0048,-0.7225,9.9916,28.721,30.3,1
14355715,-0.793,0.488,0.427,0.0150,-0.7147,9.9826,28.752,30.3,1
14365725,-0.793,0.549,0.427,0.0395,-0.7117,10.0084,28.752,30.3,1
14375725,-0.854,0.488,0.427,0.0192,-0.6955,10.0185,28.725,30.3,1
14385739,-0.732,0.427,0.427,0.0150,-0.7111,9.9724,28.752,30.3,1
14395751,-0.610,0.427,0.549,0.0389,-0.7021,10.0084,28.701,30.3,1
14405763,-0.793,0.488,0.488,-0.0048,-0.7087,9.9958,28.713,30.3,1
14415775,-0.854,0.488,0.427,0.0090,-0.7219,9.9922,28.734,30.3,1
14425776,-0.732,0.427,0.427,0.0024,-0.7236,9.9856,28.725,30.3,1
14435790,-0.671,0.427,0.427,0.0293,-0.7207,10.0042,28.689,30.3,1
14445796,-0.793,0.427,0.549,0.0269,-0.7045,9.9862,28.695,30.3,1
14455801,-0.854,0.427,0.427,0.0221,-0.7153,9.9820,28.715,30.3,1
14465811,-0.732,0.427,0.488,0.0311,-0.7183,9.9982,28.730,30.3,1
14475824,-0.854,0.427,0.427,0.0257,-0.6943,9.9922,28.746,30.3,1
14485829,-0.793,0.488,0.427,0.0084,-0.7207,10.0060,28.715,30.3,1
14495842,-0.793,0.427,0.427,0.0078,-0.7254,9.9946,28.695,30.3,1
14505842,-0.671,0.427,0.366,0.0186,-0.7207,9.9940,28.711,30.3,1
14515847,-0.732,0.427,0.488,0.0299,-0.7201,9.9928,28.738,30.3,1
14525851,-0.732,0.427,0.488,0.0156,-0.7236,10.0030,28.762,30.3,1
14535857,-0.793,0.427,0.366,-0.0102,-0.7254,10.0126,28.762,30.3,1
14545870,-0.610,0.427,0.366,0.0162,-0.7189,10.0012,28.680,30.3,1
14555872,-0.732,0.427,0.488,0.0186,-0.7183,9.9838,28.705,30.3,1
14565885,-0.793,0.366,0.488,0.0126,-0.7057,9.9886,28.717,30.3,1
14575898,-0.732,0.427,0.427,0.0299,-0.7045,10.0000,28.703,30.3,1
14585900,-0.854,0.488,0.427,0.0042,-0.7045,10.0060,28.742,30.3,1
14595908,-0.793,0.427,0.488,0.0120,-0.7129,10.0006,28.746,30.3,1
14605908,-0.793,0.366,0.427,0.0227,-0.7195,9.9707,28.762,30.3,1
14615916,-0.732,0.427,0.366,0.0168,-0.7093,10.0203,28.705,30.3,1
14625922,-0.732,0.366,0.427,0.0156,-0.7117,9.9904,28.678,30.3,1
14635928,-0.854,0.427,0.488,0.0000,-0.7009,9.9892,28.727,30.3,1
14645931,-0.732,0.610,0.427,-0.0066,-0.6943,9.9874,28.715,30.3,1
14655934,-0.671,0.549,0.488,0.0084,-0.7099,10.0060,28.742,30.3,1
14665935,-0.732,0.488,0.427,0.0341,-0.7141,10.0084,28.705,30.3,1
14675943,-0.793,0.488,0.427,0.0425,-0.7135,9.9880,28.748,30.3,1
14685943,-0.793,0.488,0.549,0.0162,-0.7177,10.0066,28.701,30.3,1
14695958,-0.793,0.488,0.427,0.0156,-0.7147,10.0072,28.725,30.3,1
14705969,-0.793,0.427,0.427,0.0060,-0.7159,9.9826,28.725,30.3,1
14715974,-0.793,0.427,0.427,0.0096,-0.7027,9.9886,28.711,30.3,1
14725976,-0.854,0.427,0.488,0.0156,-0.7272,10.0024,28.732,30.3,1
14735979,-0.732,0.427,0.366,0.0144,-0.7201,9.9982,28.688,30.3,1
14745984,-0.732,0.427,0.427,0.0024,-0.7099,9.9904,28.729,30.3,1
14755984,-0.793,0.427,0.427,0.0048,-0.7045,9.9814,28.740,30.3,1
14765994,-0.793,0.488,0.366,0.0096,-0.7057,10.0155,28.752,30.3,1
14775995,-0.732,0.427,0.488,0.0108,-0.7225,10.0126,28.719,30.3,1
14785998,-0.732,0.427,0.488,0.0066,-0.6979,9.9958,28.738,30.3,1
14796009,-0.732,0.427,0.488,0.0084,-0.7159,9.9922,28.717,30.3,1
14806022,-0.793,0.427,0.427,0.0269,-0.7033,10.0108,28.715,30.3,1
14816022,-0.793,0.427,0.549,0.0108,-0.7135,10.0197,28.689,30.3,1
14826027,-0.732,0.488,0.427,0.0066,-0.7093,10.0042,28.715,30.3,1
14836034,-0.732,0.488,0.366,0.0144,-0.6967,10.0066,28.756,30.3,1
14846035,-0.793,0.366,0.427,0.0120,-0.7248,9.9874,28.695,30.3,1
14856037,-0.793,0.427,0.488,0.0126,-0.7171,9.9940,28.707,30.3,1
14866050,-0.732,0.427,0.427,0.0198,-0.7171,9.9766,28.742,30.3,1
14876057,-0.732,0.427,0.427,0.0030,-0.7141,10.0012,28.742,30.3,1
14886064,-0.732,0.427,0.366,-0.0120,-0.6931,10.0000,28.740,30.3,1
14896070,-0.793,0.488,0.366,0.0084,-0.6967,9.9988,28.672,30.3,1
14906080,-0.793,0.427,0.488,0.0114,-0.7057,10.0000,28.750,30.3,1
14916089,-0.732,0.488,0.427,0.0072,-0.7344,9.9940,28.684,30.3,1
14926105,-0.732,0.427,0.427,0.0102,-0.7147,9.9802,28.723,30.3,1
14936107,-0.671,0.488,0.427,0.0347,-0.7039,10.0024,28.701,30.3,1
14946121,-0.793,0.488,0.427,0.0114,-0.7021,9.9832,28.729,30.3,1
14956133,-0.793,0.488,0.427,0.0120,-0.7219,9.9922,28.742,30.3,1
14966137,-0.793,0.427,0.488,0.0084,-0.7230,9.9892,28.660,30.3,1
14976145,-0.732,0.427,0.427,0.0054,-0.7272,9.9976,28.715,30.3,1
14986151,-0.732,0.366,0.488,0.0090,-0.7296,9.9814,28.725,30.3,1
14996152,-0.793,0.366,0.488,0.0036,-0.7129,9.9838,28.709,30.3,1
15006164,-0.793,0.427,0.366,0.0150,-0.7093,9.9988,28.727,30.3,1
15016175,-0.671,0.427,0.488,0.0180,-0.7177,9.9868,28.709,30.3,1
15026181,-0.793,0.427,0.488,0.0054,-0.7129,9.9880,28.713,30.3,1
15036183,-0.793,0.427,0.488,0.0245,-0.7099,9.9946,28.740,30.3,1
15046186,-0.732,0.488,0.427,0.0048,-0.7063,9.9868,28.740,30.3,1
15056194,-0.793,0.427,0.488,0.0186,-0.7117,10.0161,28.682,30.3,1
15066207,-0.793,0.549,0.549,0.0060,-0.7225,9.9838,28.719,30.3,1
15076214,-0.793,0.427,0.488,0.0209,-0.7171,9.9862,28.725,30.3,1
15086216,-0.732,0.488,0.488,0.0138,-0.7135,9.9892,28.732,30.3,1
15096216,-0.793,0.427,0.427,-0.0036,-0.7003,9.9802,28.744,30.3,1
15106228,-0.671,0.427,0.427,0.0204,-0.7147,10.0084,28.703,30.3,1
15116232,-0.732,0.488,0.427,0.0114,-0.7033,9.9916,28.744,30.3,1
15126237,-0.732,0.366,0.427,0.0323,-0.7195,9.9760,28.688,30.3,1
15136240,-0.732,0.427,0.427,0.0156,-0.7177,9.9898,28.674,30.3,1
15146253,-0.732,0.427,0.427,-0.0060,-0.7153,10.0012,28.721,30.3,1
15156266,-0.732,0.488,0.427,0.0275,-0.7177,10.0060,28.746,30.3,1
15166270,-0.671,0.427,0.427,0.0030,-0.7099,9.9982,28.697,30.3,1
15176275,-0.793,0.427,0.488,0.0162,-0.7153,10.0185,28.756,30.3,1
15186277,-0.732,0.305,0.488,0.0168,-0.7189,9.9886,28.766,30.3,1
15196282,-0.793,0.366,0.488,0.0126,-0.7039,10.0006,28.670,30.3,1
15206292,-0.793,0.488,0.366,0.0114,-0.7201,10.0078,28.711,30.3,1
15216303,-0.793,0.427,0.488,0.0383,-0.7332,9.9886,28.711,30.3,1
15226307,-0.854,0.427,0.488,0.0102,-0.7374,9.9820,28.732,30.3,1
15236314,-0.793,0.427,0.427,0.0186,-0.7177,10.0006,28.715,30.3,1
15246314,-0.793,0.427,0.427,0.0192,-0.7009,10.0132,28.729,30.3,1
15256323,-0.854,0.366,0.366,-0.0024,-0.6997,9.9946,28.734,30.3,1
15266331,-0.793,0.427,0.366,0.0251,-0.7147,9.9844,28.729,30.3,1
15276338,-0.793,0.427,0.488,0.0144,-0.7165,9.9916,28.684,30.3,1
15286338,-0.732,0.366,0.427,0.0233,-0.7135,9.9940,28.715,30.3,1
15296350,-0.732,0.366,0.366,0.0174,-0.6961,9.9904,28.713,30.3,1
15306359,-0.671,0.488,0.488,0.0048,-0.7141,9.9982,28.730,30.3,1
15316359,-0.732,0.488,0.427,0.0239,-0.7165,9.9928,28.682,30.3,1
15326359,-0.793,0.488,0.427,0.0198,-0.7057,9.9880,28.723,30.3,1
15336359,-0.732,0.488,0.366,0.0000,-0.7159,9.9862,28.721,30.3,1
15346366,-0.732,0.488,0.427,-0.0006,-0.7284,9.9814,28.768,30.3,1
15356369,-0.793,0.427,0.427,0.0174,-0.7081,9.9946,28.693,30.3,1
15366374,-0.732,0.427,0.427,0.0263,-0.6955,9.9940,28.697,30.3,1
15376377,-0.732,0.488,0.549,0.0030,-0.7236,9.9988,28.746,30.3,1
15386390,-0.732,0.427,0.427,0.0192,-0.7219,10.0179,28.746,30.3,1
15396390,-0.793,0.366,0.427,0.0066,-0.7470,10.0066,28.719,30.3,1
15406397,-0.732,0.427,0.427,0.0060,-0.7201,9.9796,28.729,30.3,1
15416408,-0.732,0.427,0.427,0.0090,-0.7177,9.9850,28.721,30.3,1
15426420,-0.732,0.366,0.427,0.0150,-0.7260,9.9862,28.734,30.3,1
15436426,-0.732,0.488,0.549,0.0108,-0.7248,9.9838,28.729,30.3,1
15446427,-0.793,0.488,0.488,0.0012,-0.7105,9.9928,28.766,30.3,1
15456427,-0.854,0.488,0.427,0.0054,-0.7105,10.0024,28.703,30.3,1
15466438,-0.671,0.366,0.427,0.0204,-0.6991,10.0143,28.711,30.3,1
15476445,-0.671,0.427,0.427,0.0209,-0.6973,9.9976,28.689,30.3,1
15486449,-0.793,0.427,0.366,-0.0090,-0.7272,10.0096,28.734,30.3,1
15496460,-0.793,0.427,0.427,0.0198,-0.7248,9.9952,28.736,30.3,1
15506473,-0.671,0.427,0.488,0.0257,-0.7033,10.0000,28.723,30.3,1
15516481,-0.793,0.427,0.427,0.0024,-0.7219,9.9916,28.691,30.3,1
15526491,-0.793,0.366,0.488,0.0233,-0.7159,9.9952,28.725,30.3,1
15536499,-0.793,0.366,0.427,0.0233,-0.7195,10.0185,28.705,30.3,1
15546501,-0.732,0.488,0.488,-0.0012,-0.7177,9.9683,28.707,30.3,1
15556514,-0.854,0.427,0.427,0.0162,-0.7099,9.9862,28.707,30.3,1
15566514,-0.915,0.366,0.427,0.0144,-0.7039,10.0120,28.715,30.3,1
15576521,-0.793,0.366,0.488,0.0192,-0.7201,9.9928,28.725,30.3,1
15586529,-0.793,0.366,0.427,0.0138,-0.7153,9.9964,28.723,30.3,1
15596529,-0.793,0.488,0.427,0.0168,-0.7135,9.9784,28.725,30.3,1
15606542,-0.671,0.549,0.488,0.0221,-0.7159,10.0155,28.711,30.3,1
15616547,-0.732,0.427,0.366,0.0012,-0.7165,10.0048,28.740,30.3,1
15626547,-0.793,0.488,0.488,0.0108,-0.7087,9.9760,28.727,30.3,1
15636551,-0.793,0.488,0.488,0.0245,-0.7242,10.0036,28.729,30.3,1
15646564,-0.854,0.427,0.366,0.0162,-0.7225,10.0126,28.754,30.3,1
15656577,-0.793,0.488,0.427,0.0245,-0.7153,10.0317,28.705,30.3,1
15666590,-0.793,0.427,0.427,0.0251,-0.7230,9.9832,28.734,30.3,1
15676597,-0.793,0.427,0.427,0.0102,-0.7069,10.0048,28.746,30.3,1
15686613,-0.671,0.488,0.488,-0.0126,-0.7015,9.9928,28.701,30.3,1
15696618,-0.793,0.366,0.427,0.0299,-0.7248,9.9814,28.715,30.3,1
15706630,-0.854,0.427,0.427,0.0215,-0.7189,9.9934,28.729,30.3,1
15716641,-0.732,0.427,0.488,0.0066,-0.7123,10.0048,28.742,30.3,1
15726641,-0.732,0.488,0.488,0.0060,-0.7230,9.9964,28.742,30.3,1
15736649,-0.854,0.488,0.427,0.0389,-0.7099,9.9928,28.717,30.3,1
15746660,-0.793,0.427,0.488,0.0018,-0.7087,9.9808,28.760,30.3,1
15756664,-0.793,0.366,0.427,0.0066,-0.7117,9.9856,28.695,30.3,1
15766676,-0.732,0.488,0.366,0.0239,-0.7195,9.9904,28.734,30.3,1
15776689,-0.732,0.488,0.427,0.0126,-0.7225,10.0137,28.738,30.3,1
15786689,-0.732,0.427,0.488,0.0341,-0.7159,10.0126,28.678,30.3,1
15796695,-0.732,0.427,0.549,0.0221,-0.7165,9.9994,28.678,30.3,1
15806700,-0.793,0.427,0.427,0.0257,-0.7069,9.9760,28.730,30.3,1
15816702,-0.793,0.427,0.488,0.0162,-0.7225,9.9838,28.723,30.3,1
15826705,-0.793,0.488,0.488,0.0102,-0.7314,9.9958,28.705,30.3,1
15836714,-0.732,0.488,0.366,-0.0144,-0.7003,10.0161,28.734,30.3,1
15846725,-0.793,0.427,0.427,0.0132,-0.7260,10.0096,28.701,30.3,1
15856733,-0.793,0.427,0.488,0.0042,-0.7123,9.9868,28.730,30.3,1
15866733,-0.854,0.488,0.488,0.0204,-0.7135,9.9928,28.650,30.3,1
15876735,-0.793,0.427,0.366,0.0449,-0.7153,10.0000,28.736,30.3,1
15886737,-0.793,0.366,0.488,0.0186,-0.7225,10.0084,28.684,30.3,1
15896737,-0.793,0.427,0.488,0.0036,-0.7063,10.0012,28.684,30.3,1
15906737,-0.793,0.427,0.427,0.0162,-0.7213,10.0179,28.742,30.3,1
15916751,-0.793,0.427,0.488,0.0114,-0.7189,9.9922,28.727,30.3,1
15926761,-0.793,0.366,0.427,0.0150,-0.7219,9.9934,28.713,30.3,1
15936763,-0.671,0.366,0.427,0.0419,-0.7207,9.9784,28.676,30.3,1
15946776,-0.793,0.488,0.488,0.0293,-0.7141,9.9946,28.715,30.3,1
15956781,-0.854,0.427,0.488,0.0192,-0.7063,10.0185,28.740,30.3,1
15966794,-0.854,0.427,0.488,0.0066,-0.7201,9.9898,28.771,30.3,1
15976796,-0.732,0.427,0.427,0.0078,-0.7081,10.0012,28.693,30.3,1
15986797,-0.854,0.488,0.488,0.0126,-0.7207,10.0197,28.760,30.3,1
15996809,-0.793,0.488,0.427,0.0174,-0.7213,10.0036,28.730,30.3,1
16006811,-0.854,0.366,0.366,0.0371,-0.7087,9.9778,28.691,30.3,1
16016813,-0.793,0.427,0.488,0.0060,-0.7009,9.9928,28.666,30.3,1
16026826,-0.732,0.488,0.488,0.0132,-0.7207,10.0066,28.725,30.3,1
16036829,-0.732,0.427,0.488,0.0180,-0.7147,10.0078,28.734,30.3,1
16046829,-0.793,0.427,0.488,0.0269,-0.7183,10.0233,28.717,30.3,1
16056829,-0.854,0.549,0.488,0.0120,-0.7165,10.0006,28.717,30.3,1
16066844,-0.854,0.427,0.427,0.0120,-0.7117,10.0012,28.717,30.3,1
16076846,-0.854,0.427,0.427,0.0036,-0.7278,10.0042,28.715,30.3,1
16086851,-0.732,0.488,0.488,0.0204,-0.7075,9.9856,28.740,30.3,1
16096852,-0.732,0.366,0.488,-0.0126,-0.7081,9.9994,28.715,30.3,1
16106855,-0.732,0.366,0.488,-0.0036,-0.7195,9.9844,28.723,30.3,1
16116855,-0.732,0.427,0.427,0.0120,-0.7225,9.9994,28.740,30.3,1
16126858,-0.793,0.488,0.427,0.0120,-0.7266,10.0000,28.705,30.3,1
16136870,-0.732,0.427,0.427,0.0192,-0.7350,10.0120,28.693,30.3,1
16146872,-0.732,0.366,0.427,0.0114,-0.7386,9.9934,28.721,30.3,1
16156873,-0.732,0.366,0.427,0.0132,-0.7308,9.9988,28.723,30.3,1
16166877,-0.854,0.488,0.305,-0.0048,-0.7051,10.0084,28.732,30.3,1
16176888,-0.793,0.366,0.366,0.0120,-0.7051,9.9874,28.715,30.3,1
16186897,-0.732,0.427,0.427,0.0192,-0.7183,10.0096,28.725,30.3,1
16196898,-0.793,0.427,0.488,0.0198,-0.7296,10.0060,28.740,30.3,1
16206898,-0.854,0.366,0.427,0.0042,-0.7207,10.0054,28.693,30.3,1
16216902,-0.915,0.366,0.366,0.0126,-0.7278,10.0048,28.727,30.3,1
16226915,-0.793,0.366,0.366,0.0180,-0.7213,9.9982,28.760,30.3,1
16236915,-0.732,0.366,0.488,0.0180,-0.7219,10.0018,28.760,30.3,1
16246915,-0.793,0.427,0.427,0.0245,-0.7248,10.0084,28.689,30.3,1
16256918,-0.732,0.427,0.427,0.0126,-0.7171,9.9952,28.725,30.3,1
16266918,-0.793,0.549,0.427,0.0078,-0.7087,9.9826,28.707,30.3,1
16276918,-0.854,0.488,0.549,0.0012,-0.6979,9.9922,28.721,30.3,1
16286918,-0.793,0.549,0.488,0.0192,-0.7129,10.0054,28.773,30.3,1
16296931,-0.793,0.427,0.427,0.0156,-0.7392,10.0060,28.703,30.3,1
16306933,-0.793,0.488,0.427,0.0269,-0.7171,9.9946,28.715,30.3,1
16316942,-0.854,0.488,0.488,0.0239,-0.7045,9.9940,28.736,30.3,1
16326942,-0.793,0.549,0.427,0.0030,-0.7129,10.0078,28.750,30.3,1
16336950,-0.854,0.488,0.488,0.0036,-0.7344,10.0096,28.719,30.3,1
16346959,-0.793,0.427,0.488,-0.0012,-0.7117,9.9928,28.740,30.3,1
16356963,-0.793,0.488,0.488,0.0078,-0.7189,9.9880,28.732,30.3,1
16366974,-0.732,0.488,0.488,0.0114,-0.7141,9.9868,28.693,30.3,1
16376984,-0.793,0.427,0.427,-0.0048,-0.7117,10.0012,28.746,30.3,1
16386991,-0.671,0.427,0.488,-0.0030,-0.7171,9.9790,28.684,30.3,1
16396994,-0.732,0.488,0.427,0.0186,-0.7242,9.9892,28.709,30.3,1
16407004,-0.732,0.427,0.427,0.0209,-0.7171,10.0078,28.709,30.3,1
16417009,-0.732,0.488,0.488,0.0227,-0.7171,10.0155,28.725,30.3,1
16427011,-0.732,0.427,0.427,-0.0060,-0.7225,9.9976,28.762,30.3,1
16437022,-0.854,0.427,0.366,0.0132,-0.7165,9.9760,28.752,30.3,1
16447035,-0.732,0.427,0.366,0.0341,-0.7117,9.9910,28.715,30.3,1
16457035,-0.671,0.427,0.488,0.0180,-0.7165,9.9886,28.713,30.3,1
16467039,-0.732,0.427,0.488,0.0156,-0.7230,9.9898,28.707,30.3,1
16477050,-0.732,0.488,0.549,0.0156,-0.7219,10.0084,28.672,30.3,1
16487055,-0.732,0.488,0.427,0.0215,-0.7135,9.9844,28.709,30.3,1
16497065,-0.671,0.427,0.488,0.0174,-0.7147,9.9701,28.736,30.3,1
16507072,-0.671,0.366,0.427,0.0138,-0.7183,10.0012,28.746,30.3,1
16517085,-0.732,0.488,0.488,0.0156,-0.7147,10.0042,28.756,30.3,1
16527087,-0.854,0.488,0.488,0.0000,-0.7129,10.0006,28.697,30.3,1
16537103,-0.915,0.427,0.488,0.0209,-0.7230,9.9946,28.709,30.3,1
16547105,-0.793,0.488,0.427,0.0144,-0.7248,10.0030,28.732,30.3,1
16557105,-0.671,0.488,0.427,-0.0072,-0.7057,10.0149,28.719,30.3,1
16567105,-0.732,0.488,0.427,0.0042,-0.7195,10.0048,28.719,30.3,1
16577105,-0.671,0.427,0.427,0.0144,-0.7189,9.9874,28.719,30.3,1
16587105,-0.793,0.366,0.305,0.0180,-0.7087,9.9952,28.746,30.3,1
16597105,-0.854,0.366,0.427,0.0072,-0.6955,9.9976,28.699,30.3,1
16607105,-0.732,0.427,0.488,0.0239,-0.7236,9.9796,28.682,30.3,1
16617109,-0.854,0.427,0.427,0.0239,-0.7290,10.0024,28.729,30.3,1
16627118,-0.793,0.366,0.366,0.0084,-0.7189,10.0209,28.703,30.3,1
16637125,-0.793,0.488,0.488,0.0060,-0.7045,9.9928,28.742,30.3,1
16647138,-0.793,0.488,0.488,0.0108,-0.7177,9.9958,28.689,30.3,1
16657151,-0.854,0.488,0.549,0.0084,-0.7189,9.9742,28.746,30.3,1
16667151,-0.732,0.488,0.427,0.0108,-0.7027,10.0030,28.707,30.3,1
16677156,-0.732,0.427,0.427,0.0204,-0.7039,10.0078,28.695,30.3,1
16687168,-0.793,0.427,0.488,0.0263,-0.7111,9.9976,28.719,30.3,1
16697179,-0.732,0.427,0.427,0.0090,-0.7009,10.0114,28.676,30.3,1
16707179,-0.793,0.427,0.488,0.0198,-0.7171,9.9976,28.717,30.3,1
16717190,-0.793,0.427,0.488,0.0042,-0.6997,10.0090,28.709,30.3,1
16727198,-0.732,0.427,0.427,0.0108,-0.7236,9.9964,28.748,30.3,1
16737210,-0.732,0.427,0.488,0.0072,-0.7219,9.9748,28.746,30.3,1
16747216,-0.793,0.488,0.488,0.0144,-0.7111,9.9778,28.746,30.3,1
16757227,-0.732,0.427,0.427,0.0084,-0.6979,9.9892,28.719,30.3,1
16767237,-0.671,0.366,0.488,0.0066,-0.7260,10.0066,28.746,30.3,1
16777237,-0.793,0.427,0.488,0.0239,-0.7308,10.0173,28.672,30.3,1
16787242,-0.793,0.488,0.488,0.0192,-0.7230,9.9814,28.727,30.3,1
16797242,-0.732,0.488,0.427,0.0090,-0.7093,10.0066,28.752,30.3,1
16807253,-0.793,0.366,0.427,0.0090,-0.7123,9.9958,28.689,30.3,1
16817262,-0.854,0.549,0.366,0.0150,-0.7027,10.0161,28.717,30.3,1
16827274,-0.793,0.488,0.427,0.0138,-0.7105,9.9814,28.734,30.3,1
16837288,-0.793,0.427,0.427,0.0215,-0.7230,9.9922,28.711,30.3,1
16847290,-0.732,0.488,0.488,0.0323,-0.7003,10.0036,28.732,30.3,1
16857298,-0.732,0.427,0.427,0.0048,-0.7111,9.9976,28.725,30.3,1
16867308,-0.671,0.488,0.427,0.0066,-0.7260,10.0000,28.775,30.3,1
16877318,-0.732,0.427,0.366,0.0144,-0.7069,10.0132,28.742,30.3,1
16887318,-0.732,0.427,0.366,0.0096,-0.7135,9.9820,28.742,30.3,1
16897331,-0.732,0.427,0.427,0.0198,-0.7230,10.0209,28.738,30.3,1
16907344,-0.732,0.488,0.488,0.0126,-0.7123,9.9922,28.684,30.3,1
16917354,-0.732,0.427,0.427,0.0192,-0.7195,9.9868,28.684,30.3,1
16927366,-0.793,0.427,0.488,0.0048,-0.7123,9.9862,28.719,30.3,1
16937378,-0.793,0.488,0.488,0.0168,-0.7302,9.9784,28.740,30.3,1
16947380,-0.793,0.488,0.427,0.0198,-0.7117,9.9844,28.725,30.3,1
16957381,-0.854,0.488,0.305,0.0233,-0.7171,9.9964,28.717,30.3,1
16967381,-0.793,0.488,0.488,0.0395,-0.7147,9.9982,28.740,30.3,1
16977392,-0.732,0.305,0.610,0.0186,-0.7075,9.9701,28.738,30.3,1
16987397,-0.732,0.427,0.366,0.0030,-0.7117,10.0084,28.744,30.3,1
16997397,-0.854,0.488,0.427,0.0168,-0.7129,9.9922,28.770,30.3,1
17007411,-0.793,0.427,0.549,0.0024,-0.7260,9.9940,28.752,30.3,1
17017425,-0.793,0.427,0.427,0.0078,-0.7296,10.0132,28.715,30.3,1
17027438,-0.732,0.488,0.427,0.0168,-0.7159,10.0167,28.744,30.3,1
17037440,-0.732,0.488,0.488,0.0257,-0.7272,10.0012,28.736,30.3,1
17047440,-0.854,0.549,0.488,0.0186,-0.7141,9.9838,28.748,30.3,1
17057451,-0.854,0.488,0.488,0.0293,-0.7171,10.0048,28.746,30.3,1
17067451,-0.854,0.427,0.488,0.0114,-0.7260,10.0108,28.734,30.3,1
17077460,-0.732,0.427,0.549,0.0156,-0.7219,10.0084,28.693,30.3,1
17087468,-0.732,0.488,0.366,-0.0006,-0.7123,9.9701,28.693,30.3,1
17097468,-0.732,0.488,0.366,0.0233,-0.7159,9.9838,28.746,30.3,1
17107471,-0.793,0.488,0.427,0.0150,-0.7087,10.0018,28.770,30.3,1
17117483,-0.915,0.488,0.549,0.0096,-0.7410,9.9904,28.691,30.3,1
17127483,-0.732,0.427,0.488,0.0204,-0.7159,9.9982,28.729,30.3,1
17137483,-0.732,0.427,0.488,-0.0006,-0.7123,9.9898,28.717,30.3,1
17147483,-0.793,0.427,0.488,0.0209,-0.7111,9.9886,28.715,30.3,1
17157486,-0.793,0.427,0.427,0.0144,-0.7159,10.0060,28.719,30.3,1
17167486,-0.732,0.488,0.549,0.0030,-0.7219,9.9832,28.701,30.3,1
17177486,-0.793,0.488,0.488,0.0227,-0.7201,9.9868,28.752,30.3,1
17187496,-0.732,0.427,0.488,0.0114,-0.7105,9.9940,28.689,30.3,1
17197501,-0.793,0.488,0.427,0.0132,-0.7117,10.0060,28.693,30.3,1
17207512,-0.732,0.427,0.366,0.0072,-0.7440,10.0000,28.754,30.3,1
17217516,-0.732,0.427,0.427,-0.0030,-0.7123,9.9946,28.709,30.3,1
17227521,-0.732,0.488,0.427,0.0221,-0.7027,9.9754,28.711,30.3,1
17237530,-0.793,0.427,0.427,0.0221,-0.7117,9.9946,28.766,30.3,1
17247534,-0.793,0.427,0.488,0.0144,-0.7075,9.9910,28.682,30.3,1
17257534,-0.732,0.427,0.427,0.0114,-0.7063,10.0084,28.682,30.3,1
17267547,-0.793,0.366,0.488,0.0084,-0.7308,10.0096,28.732,30.3,1
17277547,-0.793,0.427,0.427,0.0233,-0.7111,9.9970,28.746,30.3,1
17287547,-0.732,0.427,0.488,0.0233,-0.7057,9.9910,28.723,30.3,1
17297562,-0.793,0.366,0.488,0.0024,-0.7236,9.9713,28.734,30.3,1
17307562,-0.854,0.427,0.488,0.0204,-0.7171,9.9970,28.732,30.3,1
17317575,-0.732,0.366,0.427,0.0168,-0.7189,9.9976,28.746,30.3,1
17327577,-0.793,0.366,0.427,0.0186,-0.7236,9.9952,28.707,30.3,1
17337579,-0.793,0.427,0.427,0.0090,-0.7135,10.0036,28.740,30.3,1
17347586,-0.793,0.549,0.366,0.0072,-0.7165,9.9850,28.713,30.3,1
17357595,-0.793,0.549,0.427,0.0144,-0.7117,9.9838,28.715,30.3,1
17367611,-0.732,0.427,0.427,0.0233,-0.7177,9.9719,28.725,30.3,1
17377613,-0.854,0.366,0.427,0.0006,-0.7021,10.0084,28.719,30.3,1
17387626,-0.793,0.427,0.427,0.0162,-0.6973,10.0030,28.719,30.3,1
17397634,-0.854,0.427,0.366,0.0245,-0.7171,9.9964,28.727,30.3,1
17407644,-0.793,0.488,0.427,0.0030,-0.7290,10.0006,28.668,30.3,1
17417654,-0.793,0.427,0.427,-0.0048,-0.7075,9.9874,28.727,30.3,1
17427657,-0.793,0.427,0.427,0.0126,-0.7039,9.9772,28.727,30.3,1
17437659,-0.793,0.427,0.488,0.0132,-0.7368,9.9934,28.717,30.3,1
17447664,-0.732,0.488,0.427,0.0233,-0.7141,10.0096,28.727,30.3,1
17457676,-0.732,0.488,0.427,0.0150,-0.7171,10.0024,28.689,30.3,1
17467687,-0.793,0.427,0.488,0.0156,-0.7272,9.9796,28.721,30.3,1
17477687,-0.732,0.427,0.427,0.0060,-0.7219,9.9970,28.709,30.3,1
17487687,-0.732,0.488,0.427,0.0245,-0.7069,9.9772,28.734,30.3,1
17497695,-0.793,0.427,0.427,0.0239,-0.7111,10.0006,28.697,30.3,1
17507705,-0.793,0.488,0.488,0.0090,-0.7003,10.0108,28.662,30.3,1
17517705,-0.732,0.488,0.427,0.0078,-0.7153,9.9928,28.727,30.3,1
17527706,-0.793,0.488,0.427,0.0108,-0.7153,9.9946,28.721,30.3,1
17537709,-0.732,0.488,0.366,0.0042,-0.6985,10.0006,28.734,30.3,1
17547717,-0.671,0.427,0.427,-0.0036,-0.7344,10.0030,28.691,30.3,1
17557720,-0.793,0.427,0.488,0.0108,-0.7141,9.9850,28.770,30.3,1
17567725,-0.732,0.488,0.366,0.0072,-0.7236,10.0012,28.678,30.3,1
17577739,-0.732,0.488,0.427,0.0078,-0.7242,9.9952,28.744,30.3,1
17587751,-0.732,0.366,0.488,0.0186,-0.7141,10.0054,28.719,30.3,1
17597752,-0.793,0.366,0.366,0.0114,-0.7105,9.9772,28.719,30.3,1
17607763,-0.793,0.366,0.427,0.0311,-0.7027,9.9736,28.729,30.3,1
17617776,-0.793,0.427,0.488,0.0269,-0.7207,9.9982,28.709,30.3,1
17627782,-0.732,0.488,0.427,0.0251,-0.7260,9.9952,28.682,30.3,1
17637796,-0.671,0.427,0.427,0.0180,-0.7189,10.0108,28.732,30.3,1
17647801,-0.732,0.427,0.427,0.0126,-0.7266,9.9892,28.748,30.3,1
17657813,-0.793,0.488,0.366,0.0012,-0.7195,10.0036,28.758,30.3,1
17667824,-0.793,0.488,0.366,-0.0018,-0.7087,10.0042,28.709,30.3,1
17677832,-0.793,0.427,0.488,0.0257,-0.7105,9.9916,28.689,30.3,1
17687842,-0.732,0.427,0.427,0.0347,-0.7290,9.9778,28.742,30.3,1
17697852,-0.793,0.549,0.366,0.0114,-0.7081,9.9784,28.719,30.3,1
17707858,-0.671,0.488,0.427,0.0030,-0.7308,9.9808,28.709,30.3,1
17717858,-0.732,0.366,0.427,0.0120,-0.7159,9.9964,28.730,30.3,1
17727872,-0.793,0.427,0.488,0.0162,-0.7165,10.0030,28.766,30.3,1
17737885,-0.793,0.427,0.427,0.0132,-0.7230,9.9934,28.744,30.3,1
17747898,-0.732,0.366,0.366,0.0198,-0.7213,10.0048,28.736,30.3,1
17757908,-0.793,0.366,0.427,-0.0054,-0.7171,9.9874,28.693,30.3,1
17767913,-0.732,0.366,0.427,0.0144,-0.7057,9.9946,28.693,30.3,1
17777919,-0.732,0.488,0.488,0.0150,-0.6991,10.0042,28.760,30.3,1
17787923,-0.732,0.427,0.427,0.0168,-0.7225,9.9760,28.732,30.3,1
17797931,-0.854,0.427,0.488,0.0048,-0.7147,9.9970,28.703,30.3,1
17807931,-0.854,0.488,0.427,0.0024,-0.7147,9.9934,28.668,30.3,1
17817937,-0.793,0.427,0.488,0.0186,-0.7225,9.9982,28.719,30.3,1
17827938,-0.732,0.488,0.427,0.0078,-0.7057,10.0030,28.711,30.3,1
17837946,-0.732,0.427,0.488,0.0239,-0.7195,10.0227,28.732,30.3,1
17847950,-0.793,0.427,0.427,0.0096,-0.7147,10.0126,28.699,30.3,1
17857964,-0.793,0.427,0.427,0.0209,-0.7135,9.9862,28.725,30.3,1
17867974,-0.793,0.427,0.488,0.0126,-0.7165,10.0060,28.703,30.3,1
17877979,-0.915,0.427,0.427,0.0132,-0.7230,10.0263,28.734,30.3,1
17887989,-0.854,0.366,0.488,0.0180,-0.7135,10.0078,28.738,30.3,1
17897991,-0.793,0.366,0.488,0.0156,-0.7153,9.9922,28.766,30.3,1
17907995,-0.793,0.427,0.427,0.0215,-0.7195,10.0000,28.707,30.3,1
17917996,-0.854,0.366,0.427,0.0186,-0.7063,9.9766,28.713,30.3,1
17927999,-0.732,0.427,0.427,0.0042,-0.7272,9.9922,28.676,30.3,1
17938004,-0.732,0.488,0.427,0.0156,-0.7320,9.9730,28.676,30.3,1
17948011,-0.793,0.427,0.427,0.0323,-0.7284,10.0060,28.719,30.3,1
17958020,-0.732,0.427,0.427,0.0174,-0.7260,9.9952,28.742,30.3,1
17968022,-0.793,0.427,0.427,-0.0030,-0.7141,9.9892,28.705,30.3,1
17978026,-0.671,0.488,0.427,0.0132,-0.7195,9.9850,28.717,30.3,1
17988029,-0.732,0.488,0.488,0.0156,-0.7272,10.0036,28.729,30.3,1
17998029,-0.671,0.427,0.549,0.0198,-0.7374,10.0120,28.736,30.3,1
18008034,-0.793,0.488,0.488,0.0156,-0.7230,9.9946,28.713,30.3,1
18018035,-0.732,0.488,0.427,0.0084,-0.7236,9.9964,28.746,30.3,1
18028045,-0.793,0.366,0.427,0.0180,-0.7117,9.9994,28.752,30.3,1
18038052,-0.793,0.488,0.488,0.0311,-0.7380,10.0000,28.748,30.3,1
18048060,-0.732,0.427,0.488,0.0341,-0.7015,10.0000,28.682,30.3,1
18058072,-0.732,0.427,0.488,0.0192,-0.7081,9.9922,28.740,30.3,1
18068080,-0.854,0.427,0.549,0.0120,-0.7075,9.9928,28.742,30.3,1
18078090,-0.732,0.488,0.488,0.0192,-0.7033,10.0066,28.693,30.3,1
18088108,-0.793,0.427,0.488,0.0132,-0.7177,9.9952,28.691,30.3,1
18098108,-0.732,0.549,0.427,-0.0132,-0.7147,10.0084,28.740,30.3,1
18108120,-0.793,0.427,0.488,0.0006,-0.7254,9.9904,28.740,30.3,1
18118120,-0.732,0.366,0.488,0.0156,-0.7230,10.0030,28.697,30.3,1
18128120,-0.732,0.488,0.427,0.0323,-0.7129,10.0161,28.701,30.3,1
18138131,-0.854,0.427,0.427,0.0132,-0.7147,9.9898,28.674,30.3,1
18148140,-0.732,0.549,0.488,0.0012,-0.7284,9.9928,28.691,30.3,1
18158149,-0.793,0.427,0.427,0.0150,-0.7063,9.9952,28.723,30.3,1
18168161,-0.793,0.427,0.427,0.0156,-0.7135,9.9838,28.715,30.3,1
18178170,-0.793,0.427,0.488,0.0227,-0.7284,10.0072,28.717,30.3,1
18188181,-0.915,0.488,0.366,0.0144,-0.7374,9.9952,28.717,30.3,1
18198186,-0.854,0.427,0.427,0.0096,-0.7242,10.0054,28.691,30.3,1
18208197,-0.793,0.366,0.488,0.0227,-0.7105,10.0078,28.736,30.3,1
18218207,-0.732,0.366,0.488,0.0174,-0.7123,9.9898,28.682,30.3,1
18228213,-0.793,0.427,0.427,0.0174,-0.7201,10.0024,28.717,30.3,1
18238222,-0.671,0.427,0.427,0.0102,-0.7045,10.0060,28.730,30.3,1
18248232,-0.671,0.427,0.366,0.0299,-0.7183,10.0179,28.717,30.3,1
18258240,-0.854,0.427,0.427,0.0078,-0.7284,10.0191,28.744,30.3,1
18268253,-0.854,0.488,0.488,0.0012,-0.7009,9.9820,28.709,30.3,1
18278255,-0.793,0.549,0.488,0.0054,-0.7075,10.0030,28.709,30.3,1
18288259,-0.793,0.488,0.427,-0.0120,-0.7153,9.9838,28.717,30.3,1
18298270,-0.793,0.427,0.427,0.0072,-0.7236,9.9730,28.734,30.3,1
18308275,-0.854,0.366,0.488,0.0215,-0.7153,10.0000,28.723,30.3,1
18318289,-0.732,0.427,0.427,0.0120,-0.7165,9.9934,28.717,30.3,1
18328303,-0.793,0.427,0.427,0.0233,-0.7362,10.0012,28.729,30.3,1
18338308,-0.793,0.427,0.488,0.0108,-0.7207,10.0048,28.709,30.3,1
18348321,-0.732,0.488,0.427,0.0150,-0.7117,9.9886,28.723,30.3,1
18358329,-0.793,0.427,0.427,0.0048,-0.7063,9.9934,28.760,30.3,1
18368343,-0.915,0.427,0.488,0.0054,-0.7099,9.9850,28.713,30.3,1
18378349,-0.976,0.427,0.427,0.0120,-0.7308,9.9952,28.748,30.3,1
18388362,-0.793,0.427,0.427,0.0227,-0.7296,9.9940,28.738,30.3,1
18398364,-0.732,0.427,0.427,0.0090,-0.7063,9.9820,28.740,30.3,1
18408368,-0.732,0.488,0.427,0.0018,-0.7009,9.9820,28.684,30.3,1
18418381,-0.793,0.427,0.488,0.0132,-0.7213,9.9922,28.713,30.3,1
18428381,-0.854,0.366,0.427,0.0126,-0.7213,9.9922,28.746,30.3,1
18438388,-0.793,0.427,0.488,0.0126,-0.6997,9.9928,28.707,30.3,1
18448397,-0.732,0.488,0.488,0.0186,-0.7159,9.9982,28.707,30.3,1
18458399,-0.732,0.427,0.427,0.0000,-0.7213,10.0096,28.707,30.3,1
18468411,-0.732,0.366,0.427,0.0030,-0.7320,9.9904,28.736,30.3,1
18478412,-0.671,0.366,0.366,0.0042,-0.7314,10.0030,28.744,30.3,1
18488414,-0.671,0.427,0.427,0.0054,-0.7284,9.9994,28.703,30.3,1
18498423,-0.732,0.427,0.427,0.0144,-0.7356,9.9958,28.723,30.3,1
18508423,-0.732,0.366,0.488,0.0239,-0.7189,9.9862,28.715,30.3,1
18518430,-0.732,0.427,0.427,0.0221,-0.7338,9.9910,28.750,30.3,1
18528442,-0.793,0.427,0.427,0.0233,-0.7081,9.9832,28.717,30.3,1
18538451,-0.854,0.427,0.427,0.0084,-0.7177,9.9940,28.748,30.3,1
18548460,-0.854,0.427,0.427,0.0090,-0.7123,9.9826,28.744,30.3,1
18558471,-0.793,0.427,0.366,0.0054,-0.7123,9.9958,28.691,30.3,1
18568481,-0.732,0.427,0.427,0.0156,-0.7207,9.9910,28.750,30.3,1
18578481,-0.732,0.427,0.427,0.0156,-0.7260,10.0036,28.701,30.3,1
18588491,-0.793,0.427,0.488,0.0198,-0.7201,9.9916,28.713,30.3,1
18598496,-0.793,0.488,0.488,0.0209,-0.7225,10.0132,28.746,30.3,1
18608506,-0.793,0.488,0.427,0.0030,-0.7326,9.9958,28.736,30.3,1
18618510,-0.793,0.427,0.427,-0.0054,-0.7284,9.9880,28.736,30.3,1
18628521,-0.793,0.488,0.488,0.0090,-0.7129,9.9976,28.736,30.3,1
18638530,-0.732,0.427,0.366,0.0084,-0.7213,9.9766,28.746,30.3,1
18648542,-0.793,0.366,0.427,0.0180,-0.7189,9.9689,28.742,30.3,1
18658551,-0.732,0.427,0.366,0.0221,-0.7290,10.0000,28.746,30.3,1
18668557,-0.793,0.488,0.427,0.0263,-0.7183,10.0120,28.748,30.3,1
18678560,-0.732,0.488,0.427,0.0150,-0.7141,9.9862,28.736,30.3,1
18688560,-0.793,0.488,0.488,0.0084,-0.7254,9.9946,28.695,30.3,1
18698572,-0.732,0.427,0.427,0.0192,-0.7159,9.9904,28.684,30.3,1
18708580,-0.793,0.427,0.427,0.0156,-0.7350,10.0072,28.701,30.3,1
18718586,-0.793,0.427,0.427,0.0269,-0.7356,9.9964,28.695,30.3,1
18728588,-0.671,0.427,0.488,0.0174,-0.7344,9.9754,28.746,30.3,1
18738595,-0.671,0.427,0.488,0.0245,-0.7183,10.0000,28.793,30.3,1
18748597,-0.732,0.427,0.488,0.0192,-0.7129,10.0108,28.744,30.3,1
18758611,-0.793,0.488,0.427,0.0186,-0.7099,9.9988,28.715,30.3,1
18768613,-0.732,0.427,0.488,0.0227,-0.7230,9.9970,28.691,30.3,1
18778626,-0.732,0.488,0.549,0.0275,-0.7129,10.0006,28.672,30.3,1
18788634,-0.671,0.366,0.427,0.0209,-0.7225,9.9958,28.672,30.3,1
18798646,-0.854,0.366,0.427,-0.0036,-0.7081,10.0048,28.734,30.3,1
18808656,-0.793,0.549,0.488,0.0126,-0.7075,10.0012,28.771,30.3,1
18818664,-0.671,0.427,0.427,0.0156,-0.7147,9.9850,28.777,30.3,1
18828672,-0.854,0.427,0.427,-0.0048,-0.7230,9.9982,28.721,30.3,1
18838684,-0.732,0.488,0.488,-0.0006,-0.7165,10.0084,28.697,30.3,1
18848685,-0.732,0.488,0.488,0.0263,-0.7201,9.9766,28.752,30.3,1
18858699,-0.793,0.427,0.427,0.0198,-0.7278,9.9964,28.748,30.3,1
18868710,-0.732,0.427,0.488,0.0138,-0.7153,10.0096,28.703,30.3,1
18878714,-0.732,0.427,0.427,0.0209,-0.7039,9.9904,28.736,30.3,1
18888725,-0.732,0.427,0.427,0.0245,-0.7242,9.9808,28.699,30.3,1
18898739,-0.732,0.549,0.488,0.0251,-0.7135,10.0179,28.730,30.3,1
18908748,-0.793,0.427,0.427,0.0192,-0.7230,10.0149,28.727,30.3,1
18918755,-0.732,0.427,0.427,0.0245,-0.7242,10.0066,28.744,30.3,1
18928761,-0.732,0.488,0.427,0.0233,-0.7380,9.9874,28.738,30.3,1
18938770,-0.671,0.488,0.488,0.0293,-0.7338,9.9748,28.699,30.3,1
18948776,-0.671,0.427,0.427,0.0413,-0.7230,9.9922,28.717,30.3,1
18958781,-0.793,0.427,0.427,0.0072,-0.7332,9.9970,28.717,30.3,1
18968783,-0.854,0.488,0.488,0.0066,-0.7404,9.9928,28.715,30.3,1
18978797,-0.854,0.427,0.427,0.0180,-0.7141,10.0000,28.697,30.3,1
18988811,-0.854,0.427,0.427,0.0227,-0.7236,9.9802,28.740,30.3,1
18998822,-0.793,0.427,0.427,0.0168,-0.7207,9.9916,28.705,30.3,1
19008828,-0.793,0.427,0.427,0.0209,-0.7165,9.9772,28.664,30.3,1
19018842,-0.732,0.427,0.488,0.0138,-0.7153,9.9964,28.689,30.3,1
19028852,-0.732,0.427,0.488,0.0215,-0.7248,10.0036,28.742,30.3,1
19038857,-0.732,0.427,0.488,0.0000,-0.7111,9.9880,28.711,30.3,1
19048861,-0.732,0.488,0.427,0.0000,-0.7183,10.0024,28.734,30.3,1
19058867,-0.732,0.427,0.427,0.0102,-0.7147,10.0185,28.723,30.3,1
19068870,-0.793,0.427,0.427,0.0120,-0.7236,10.0000,28.697,30.3,1
19078876,-0.793,0.427,0.427,0.0138,-0.7123,9.9940,28.672,30.3,1
19088876,-0.854,0.488,0.427,0.0233,-0.7159,10.0191,28.695,30.3,1
19098876,-0.732,0.427,0.488,-0.0018,-0.7075,10.0030,28.715,30.3,1
19108877,-0.671,0.427,0.427,0.0233,-0.7123,9.9964,28.732,30.3,1
19118889,-0.732,0.488,0.427,0.0114,-0.7446,9.9736,28.723,30.3,1
19128900,-0.793,0.427,0.488,0.0209,-0.7386,9.9814,28.723,30.3,1
19138907,-0.793,0.488,0.427,0.0192,-0.7057,10.0030,28.746,30.3,1
19148907,-0.793,0.488,0.427,0.0269,-0.7320,10.0066,28.723,30.3,1
19158907,-0.793,0.427,0.427,0.0281,-0.7248,10.0000,28.732,30.3,1
19168919,-0.671,0.366,0.427,0.0233,-0.7260,9.9946,28.730,30.3,1
19178920,-0.671,0.366,0.366,0.0120,-0.7260,9.9946,28.746,30.3,1
19188933,-0.793,0.366,0.427,0.0150,-0.7213,9.9964,28.697,30.3,1
19198935,-0.793,0.366,0.427,-0.0012,-0.7153,9.9970,28.691,30.3,1
19208948,-0.793,0.366,0.427,0.0024,-0.7081,9.9904,28.750,30.3,1
19218961,-0.854,0.488,0.488,0.0162,-0.7045,9.9880,28.752,30.3,1
19228961,-0.793,0.549,0.549,0.0198,-0.7141,9.9844,28.762,30.3,1
19238963,-0.793,0.427,0.427,0.0120,-0.7314,10.0018,28.713,30.3,1
19248966,-0.732,0.427,0.427,0.0227,-0.7230,10.0060,28.713,30.3,1
19258973,-0.671,0.427,0.488,0.0395,-0.7284,9.9934,28.732,30.3,1
19268974,-0.732,0.488,0.427,0.0030,-0.7195,10.0060,28.770,30.3,1
19278979,-0.854,0.549,0.488,0.0138,-0.7242,9.9808,28.738,30.3,1
19288981,-0.793,0.488,0.427,0.0138,-0.7242,9.9910,28.734,30.3,1
19298991,-0.732,0.366,0.427,0.0215,-0.7290,9.9970,28.734,30.3,1
19308992,-0.793,0.427,0.488,0.0221,-0.7350,9.9970,28.701,30.3,1
19319004,-0.793,0.610,0.488,0.0180,-0.7242,9.9802,28.705,30.3,1
19329004,-0.854,0.427,0.427,0.0054,-0.7183,10.0054,28.738,30.3,1
19339014,-0.854,0.427,0.427,0.0281,-0.7380,10.0006,28.746,30.3,1
19349014,-0.793,0.427,0.488,0.0395,-0.7153,9.9952,28.777,30.3,1
19359026,-0.793,0.427,0.427,0.0132,-0.7111,9.9838,28.768,30.3,1
19369026,-0.793,0.427,0.427,0.0114,-0.7236,9.9916,28.729,30.3,1
19379035,-0.915,0.427,0.427,0.0132,-0.7165,10.0114,28.732,30.3,1
19389045,-0.793,0.427,0.488,0.0209,-0.7093,10.0066,28.760,30.3,1
19399059,-0.793,0.427,0.488,0.0036,-0.7213,10.0203,28.734,30.3,1
19409067,-0.854,0.488,0.427,0.0090,-0.7350,9.9922,28.738,30.3,1
19419070,-0.732,0.427,0.427,0.0066,-0.7081,9.9988,28.697,30.3,1
19429080,-0.854,0.427,0.488,0.0120,-0.7219,10.0185,28.732,30.3,1
19439083,-0.915,0.488,0.488,0.0096,-0.7195,10.0149,28.736,30.3,1
19449096,-0.793,0.488,0.549,0.0066,-0.7302,10.0000,28.695,30.3,1
19459107,-0.793,0.488,0.488,-0.0060,-0.7039,9.9946,28.732,30.3,1
19469120,-0.793,0.427,0.488,0.0156,-0.7195,9.9982,28.732,30.3,1
19479120,-0.732,0.366,0.427,0.0120,-0.7368,9.9994,28.711,30.3,1
19489120,-0.671,0.427,0.488,0.0227,-0.7129,10.0173,28.688,30.3,1
19499134,-0.793,0.488,0.488,0.0323,-0.7236,9.9904,28.732,30.3,1
19509136,-0.793,0.427,0.549,0.0227,-0.7290,9.9994,28.760,30.3,1
19519136,-0.793,0.427,0.488,0.0275,-0.7147,10.0066,28.709,30.3,1
19529146,-0.793,0.427,0.366,0.0150,-0.7147,9.9814,28.742,30.3,1
19539156,-0.732,0.427,0.427,0.0042,-0.7201,9.9970,28.713,30.3,1
19549168,-0.854,0.427,0.366,0.0120,-0.7225,9.9904,28.730,30.3,1
19559181,-0.793,0.488,0.427,0.0174,-0.7284,9.9814,28.715,30.3,1
19569186,-0.732,0.427,0.488,0.0275,-0.7242,9.9898,28.725,30.3,1
19579192,-0.732,0.427,0.488,-0.0096,-0.7045,9.9964,28.730,30.3,1
19589198,-0.732,0.427,0.366,0.0138,-0.7171,10.0084,28.701,30.3,1
19599212,-0.793,0.427,0.366,0.0299,-0.7135,10.0012,28.734,30.3,1
19609222,-0.732,0.488,0.427,0.0036,-0.7201,9.9934,28.771,30.3,1
19619232,-0.793,0.427,0.427,0.0108,-0.7063,9.9880,28.680,30.3,1
19629232,-0.793,0.427,0.427,0.0096,-0.7081,10.0179,28.721,30.3,1
19639244,-0.793,0.488,0.488,0.0072,-0.7117,10.0257,28.721,30.3,1
19649247,-0.915,0.427,0.488,0.0227,-0.7183,10.0066,28.723,30.3,1
19659247,-0.732,0.427,0.427,0.0257,-0.7153,9.9880,28.725,30.3,1
19669259,-0.854,0.427,0.488,0.0078,-0.7326,10.0078,28.715,30.3,1
19679259,-0.732,0.427,0.549,0.0012,-0.7392,10.0155,28.695,30.3,1
19689271,-0.610,0.427,0.549,0.0090,-0.7171,10.0060,28.766,30.3,1
19699271,-0.732,0.488,0.427,0.0168,-0.7165,9.9898,28.742,30.3,1
19709273,-0.732,0.427,0.427,0.0186,-0.7123,10.0018,28.682,30.3,1
19719286,-0.793,0.427,0.427,0.0138,-0.7129,9.9928,28.707,30.3,1
19729298,-0.732,0.427,0.427,0.0138,-0.7326,9.9880,28.721,30.3,1
19739305,-0.854,0.427,0.488,0.0066,-0.7230,9.9844,28.725,30.3,1
19749314,-0.732,0.427,0.488,0.0012,-0.7290,9.9826,28.752,30.3,1
19759320,-0.732,0.488,0.366,0.0078,-0.7219,9.9826,28.742,30.3,1
19769329,-0.793,0.427,0.427,0.0006,-0.7230,10.0096,28.715,30.3,1
19779335,-0.793,0.366,0.427,-0.0120,-0.7254,10.0102,28.746,30.3,1
19789344,-0.854,0.305,0.488,0.0221,-0.7278,9.9928,28.738,30.3,1
19799351,-0.732,0.366,0.488,0.0192,-0.7153,9.9647,28.744,30.3,1
19809354,-0.793,0.488,0.427,0.0150,-0.7093,9.9964,28.744,30.3,1
19819359,-0.854,0.488,0.427,0.0198,-0.7087,10.0078,28.758,30.3,1
19829359,-0.793,0.427,0.488,0.0090,-0.6991,10.0018,28.719,30.3,1
19839359,-0.793,0.427,0.488,0.0096,-0.7219,9.9856,28.705,30.3,1
19849369,-0.732,0.366,0.366,0.0066,-0.7129,9.9880,28.752,30.3,1
19859369,-0.732,0.427,0.488,-0.0066,-0.7075,9.9826,28.719,31.3,1
19869369,-0.732,0.427,0.427,0.0323,-0.7236,10.0012,28.713,30.3,1
19879381,-0.854,0.366,0.488,0.0042,-0.7422,9.9856,28.740,30.3,1
19889383,-0.793,0.427,0.427,0.0072,-0.7177,9.9814,28.717,31.3,1
19899396,-0.671,0.488,0.366,0.0233,-0.7093,9.9742,28.727,30.3,1
19909397,-0.793,0.488,0.488,0.0036,-0.7278,10.0024,28.736,31.3,1
19919411,-0.793,0.427,0.427,0.0096,-0.7183,9.9766,28.740,30.3,1
19929425,-0.732,0.427,0.488,0.0198,-0.7141,10.0060,28.730,30.3,1
19939427,-0.854,0.427,0.488,0.0132,-0.7081,10.0108,28.746,30.3,1
19949435,-0.915,0.427,0.427,0.0227,-0.7057,9.9994,28.758,30.3,1
19959442,-0.793,0.427,0.488,0.0198,-0.7254,10.0006,28.727,30.3,1
19969455,-0.854,0.427,0.427,0.0329,-0.7272,9.9982,28.750,30.3,1
19979455,-0.854,0.488,0.427,0.0132,-0.7332,9.9892,28.750,30.3,1
19989466,-0.793,0.427,0.427,0.0186,-0.7320,10.0126,28.717,30.3,1
19999475,-0.793,0.427,0.427,0.0120,-0.7111,9.9868,28.715,31.3,1
20009475,-0.793,0.488,0.427,-0.0060,-0.7129,10.0114,28.766,30.3,1
20019488,-0.793,0.488,0.488,0.0245,-0.7153,9.9904,28.729,30.3,1
20029496,-0.793,0.549,0.488,0.0251,-0.7230,10.0060,28.766,30.3,1
