TimeUs,GyroX_dps,GyroY_dps,GyroZ_dps,AccelX_mps2,AccelY_mps2,AccelZ_mps2,ImuTempC,EspTempC,Status
1272201,-0.366,-0.366,-0.122,0.3962,-0.3310,9.6780,27.883,27.6,1
1282206,-0.305,-0.427,-0.122,0.3843,-0.3298,9.6720,27.885,27.6,1
1292213,-0.305,-0.427,-0.122,0.3783,-0.3106,9.6708,27.855,27.6,1
1302213,-0.305,-0.366,-0.183,0.4040,-0.3089,9.7067,27.879,27.6,1
1312224,-0.366,-0.366,0.000,0.3891,-0.2969,9.6899,27.883,27.6,1
1322227,-0.366,-0.366,0.000,0.4082,-0.2999,9.6672,27.883,27.6,1
1332229,-0.305,-0.366,-0.122,0.3903,-0.3112,9.7049,27.932,27.6,1
1342242,-0.366,-0.427,-0.061,0.3867,-0.3142,9.6881,27.932,27.6,1
1352243,-0.366,-0.366,0.000,0.3711,-0.3023,9.7169,27.861,27.6,1
1362244,-0.366,-0.366,-0.061,0.3879,-0.3172,9.6935,27.904,27.6,1
1372258,-0.366,-0.427,-0.061,0.3998,-0.3274,9.6798,27.859,27.6,1
1382262,-0.366,-0.427,-0.122,0.3837,-0.3190,9.6947,27.898,27.6,1
1392270,-0.305,-0.427,-0.122,0.3837,-0.2987,9.6810,27.922,27.6,1
1402273,-0.305,-0.427,-0.122,0.3926,-0.2981,9.6726,27.920,27.6,1
1412273,-0.427,-0.366,-0.061,0.3891,-0.2927,9.7109,27.938,27.6,1
1422274,-0.366,-0.366,-0.061,0.3771,-0.3071,9.6822,27.910,27.6,1
1432276,-0.366,-0.427,-0.122,0.3974,-0.3089,9.6911,27.953,27.6,1
1442288,-0.244,-0.427,-0.122,0.3801,-0.3286,9.6762,27.873,27.6,1
1452289,-0.366,-0.366,-0.122,0.3843,-0.3130,9.6827,27.920,27.6,1
1462300,-0.366,-0.366,-0.061,0.3795,-0.2879,9.6798,27.902,27.6,1
1472313,-0.366,-0.366,0.000,0.3807,-0.2969,9.6857,27.947,27.6,1
1482319,-0.366,-0.427,-0.061,0.4028,-0.3238,9.6768,27.898,27.6,1
1492331,-0.366,-0.427,-0.061,0.3837,-0.3112,9.7037,27.949,27.6,1
1502344,-0.366,-0.366,-0.061,0.3909,-0.3124,9.7163,27.955,27.6,1
1512346,-0.305,-0.366,-0.122,0.4034,-0.3124,9.7049,27.904,27.6,1
1522346,-0.305,-0.366,-0.061,0.3915,-0.2975,9.6941,27.904,27.6,1
1532350,-0.305,-0.427,0.000,0.3915,-0.3184,9.6851,27.918,27.6,1
1542361,-0.366,-0.427,-0.122,0.4010,-0.3214,9.6995,27.896,27.6,1
1552369,-0.366,-0.305,-0.183,0.3837,-0.3232,9.7211,27.949,27.6,1
1562380,-0.427,-0.366,-0.061,0.3879,-0.3106,9.7127,27.926,27.6,1
1572390,-0.366,-0.427,-0.061,0.3777,-0.3142,9.7001,27.920,27.6,1
1582405,-0.305,-0.366,-0.061,0.3741,-0.3100,9.7019,27.945,27.6,1
1592413,-0.305,-0.305,-0.122,0.3926,-0.3059,9.6822,27.934,27.6,1
1602414,-0.366,-0.305,-0.122,0.3903,-0.3124,9.7013,27.908,27.6,1
1612427,-0.366,-0.366,-0.122,0.3968,-0.3166,9.6911,27.957,27.6,1
1622441,-0.305,-0.427,-0.061,0.3956,-0.3130,9.7067,27.918,27.6,1
1632441,-0.305,-0.427,-0.122,0.4112,-0.3166,9.7097,27.910,27.6,1
1642453,-0.366,-0.366,-0.061,0.3825,-0.3065,9.6833,27.906,27.6,1
1652465,-0.427,-0.366,0.061,0.3693,-0.3065,9.7001,27.945,27.6,1
1662468,-0.366,-0.305,0.000,0.3974,-0.3160,9.7133,27.949,27.6,1
1672481,-0.427,-0.305,-0.061,0.3968,-0.3304,9.6947,27.943,27.6,1
1682483,-0.366,-0.366,-0.061,0.3962,-0.3190,9.7133,27.910,27.6,1
1692487,-0.366,-0.488,0.000,0.3938,-0.3124,9.7109,27.910,27.6,1
1702491,-0.305,-0.366,0.000,0.3897,-0.3178,9.6810,27.934,27.6,1
1712502,-0.366,-0.427,-0.061,0.4088,-0.3190,9.6612,27.984,27.6,1
1722512,-0.366,-0.427,0.000,0.3915,-0.3095,9.7007,27.977,27.6,1
1732518,-0.305,-0.305,-0.061,0.3795,-0.2963,9.6983,27.916,27.6,1
1742522,-0.366,-0.427,-0.061,0.3962,-0.3095,9.7037,27.986,27.6,1
1752534,-0.366,-0.305,0.000,0.3861,-0.3202,9.7264,27.922,27.6,1
1762546,-0.366,-0.366,-0.061,0.3938,-0.3208,9.7079,27.967,27.6,1
1772546,-0.305,-0.366,-0.061,0.3998,-0.3118,9.6923,27.918,27.6,1
1782556,-0.366,-0.366,-0.122,0.3693,-0.3083,9.6869,27.930,27.6,1
1792562,-0.366,-0.366,-0.061,0.3938,-0.3071,9.6995,27.967,27.6,1
1802571,-0.366,-0.427,-0.122,0.3968,-0.3238,9.7001,27.969,27.6,1
1812579,-0.427,-0.305,-0.061,0.3765,-0.3136,9.6983,27.977,27.6,1
1822579,-0.427,-0.427,-0.061,0.3926,-0.3178,9.6929,28.004,27.6,1
1832581,-0.305,-0.488,-0.183,0.3849,-0.3130,9.6648,27.988,27.6,1
1842582,-0.305,-0.244,-0.061,0.3777,-0.3053,9.6714,27.975,27.6,1
1852586,-0.305,-0.305,0.000,0.3879,-0.3041,9.6887,27.953,27.6,1
1862595,-0.244,-0.427,-0.061,0.3950,-0.3023,9.7258,27.969,27.6,1
1872607,-0.305,-0.244,-0.061,0.3831,-0.3136,9.6995,27.969,27.6,1
1882612,-0.366,-0.305,-0.061,0.3897,-0.3388,9.6780,27.949,27.6,1
1892622,-0.366,-0.427,-0.061,0.4070,-0.3220,9.6594,27.992,27.6,1
1902632,-0.305,-0.305,-0.061,0.3909,-0.2987,9.6845,27.939,27.6,1
1912632,-0.366,-0.305,-0.122,0.3938,-0.3106,9.7336,27.945,27.6,1
1922632,-0.427,-0.366,-0.122,0.4052,-0.3089,9.7229,27.980,27.6,1
1932640,-0.305,-0.366,0.000,0.3962,-0.3083,9.6887,27.979,27.6,1
1942653,-0.427,-0.366,-0.061,0.3915,-0.3154,9.6618,27.967,27.6,1
1952663,-0.305,-0.366,0.000,0.3867,-0.3112,9.7019,27.941,27.6,1
1962666,-0.366,-0.366,-0.061,0.3986,-0.3095,9.6881,27.949,27.6,1
1972674,-0.427,-0.427,-0.122,0.3801,-0.3178,9.7049,27.967,27.6,1
1982675,-0.427,-0.366,-0.061,0.3879,-0.3130,9.6768,28.000,27.6,1
1992683,-0.305,-0.427,0.000,0.3950,-0.3112,9.7001,27.967,27.6,1
2002683,-0.366,-0.366,-0.061,0.4046,-0.3262,9.7133,27.977,27.6,1
2012686,-0.366,-0.366,-0.061,0.3903,-0.3274,9.6935,27.996,27.6,1
2022690,-0.366,-0.305,0.000,0.3938,-0.3190,9.6780,27.963,27.6,1
2032693,-0.305,-0.427,-0.061,0.3938,-0.3166,9.7085,27.965,27.6,1
2042701,-0.305,-0.366,-0.061,0.3992,-0.3071,9.7067,27.967,27.6,1
2052704,-0.244,-0.427,-0.061,0.3962,-0.3011,9.6887,27.967,27.6,1
2062705,-0.305,-0.427,-0.061,0.3705,-0.3142,9.6959,27.965,27.6,1
2072705,-0.366,-0.366,0.000,0.3956,-0.2933,9.7133,27.949,27.6,1
2082716,-0.366,-0.427,-0.061,0.4040,-0.3017,9.7061,27.943,27.6,1
2092730,-0.305,-0.366,-0.122,0.3980,-0.3268,9.6995,27.963,27.6,1
2102732,-0.305,-0.427,-0.122,0.3944,-0.2999,9.7043,27.992,27.6,1
2112739,-0.305,-0.427,0.000,0.3855,-0.3029,9.6965,27.992,27.6,1
2122751,-0.305,-0.366,0.000,0.3849,-0.3017,9.6720,27.979,27.6,1
2132754,-0.305,-0.427,-0.061,0.4070,-0.3100,9.6851,28.010,27.6,1
2142767,-0.366,-0.427,-0.122,0.4034,-0.3023,9.7007,28.002,27.6,1
2152781,-0.366,-0.366,-0.061,0.3837,-0.3154,9.6953,27.941,27.6,1
2162792,-0.366,-0.366,-0.061,0.3855,-0.3178,9.6810,28.012,27.6,1
2172793,-0.366,-0.305,-0.061,0.3980,-0.3184,9.6774,27.961,27.6,1
2182808,-0.366,-0.366,-0.061,0.3932,-0.3166,9.7079,27.988,27.6,1
2192811,-0.366,-0.366,-0.061,0.3974,-0.3160,9.7133,28.002,27.6,1
2202812,-0.366,-0.366,-0.061,0.3956,-0.3178,9.7001,27.934,27.6,1
2212815,-0.305,-0.427,-0.061,0.3938,-0.3184,9.7019,27.975,27.6,1
2222827,-0.366,-0.427,0.000,0.4106,-0.3089,9.6905,28.002,27.6,1
2232838,-0.366,-0.366,0.000,0.3723,-0.3041,9.7031,28.002,27.6,1
2242842,-0.305,-0.366,-0.061,0.3783,-0.3053,9.6959,27.990,27.6,1
2252853,-0.366,-0.427,-0.122,0.3968,-0.3178,9.6905,28.045,27.6,1
2262866,-0.366,-0.366,-0.061,0.3956,-0.2903,9.6875,27.965,27.6,1
2272876,-0.305,-0.366,-0.061,0.3938,-0.3172,9.7139,28.002,27.6,1
2282887,-0.427,-0.366,-0.183,0.3735,-0.3142,9.6893,28.018,27.6,1
2292887,-0.244,-0.366,-0.061,0.3807,-0.2963,9.7276,27.965,27.6,1
2302894,-0.305,-0.366,0.061,0.3807,-0.3095,9.7276,28.002,27.6,1
2312904,-0.305,-0.305,-0.061,0.3843,-0.3130,9.6911,27.984,27.6,1
2322914,-0.244,-0.366,-0.061,0.3843,-0.3184,9.6678,28.012,27.6,1
2332927,-0.305,-0.427,-0.061,0.3873,-0.3124,9.7043,27.986,27.6,1
2342937,-0.366,-0.427,-0.061,0.3801,-0.3232,9.7127,28.008,27.6,1
2352942,-0.305,-0.366,-0.061,0.3807,-0.3232,9.6965,27.979,27.6,1
2362942,-0.366,-0.366,0.000,0.3765,-0.3244,9.6857,27.967,27.6,1
2372945,-0.244,-0.366,-0.122,0.3944,-0.3196,9.6845,28.021,27.6,1
2382945,-0.244,-0.305,-0.061,0.3813,-0.3029,9.6899,27.988,27.6,1
2392948,-0.366,-0.366,-0.122,0.4052,-0.3041,9.7049,27.980,27.6,1
2402957,-0.366,-0.488,-0.183,0.3903,-0.3029,9.6971,27.980,27.6,1
2412963,-0.305,-0.427,-0.122,0.3681,-0.3035,9.7151,28.002,27.6,1
2422970,-0.366,-0.366,-0.061,0.3980,-0.3202,9.7217,28.020,27.6,1
2432982,-0.305,-0.305,-0.061,0.4076,-0.3059,9.7151,27.990,27.6,1
2442993,-0.366,-0.427,-0.061,0.4082,-0.3190,9.7169,28.039,27.6,1
2453006,-0.366,-0.366,-0.061,0.3926,-0.3053,9.7169,28.000,27.6,1
2463016,-0.305,-0.366,-0.061,0.3855,-0.3244,9.7103,27.984,27.6,1
2473017,-0.366,-0.427,-0.061,0.3915,-0.3166,9.6959,27.980,27.6,1
2483026,-0.427,-0.366,0.000,0.4052,-0.3059,9.7043,28.016,27.6,1
2493039,-0.305,-0.366,-0.061,0.4004,-0.3142,9.6965,28.025,27.6,1
2503042,-0.366,-0.366,0.000,0.3992,-0.3142,9.7109,28.031,27.6,1
2513042,-0.366,-0.427,-0.122,0.3974,-0.3166,9.7390,27.990,27.6,1
2523054,-0.305,-0.427,-0.061,0.3986,-0.3106,9.7175,27.965,27.6,1
2533057,-0.366,-0.427,-0.061,0.3867,-0.3190,9.7139,27.992,27.6,1
2543064,-0.305,-0.366,-0.183,0.4130,-0.3280,9.6833,28.020,27.6,1
2553079,-0.366,-0.305,-0.122,0.4082,-0.3154,9.7037,28.006,27.6,1
2563079,-0.305,-0.305,0.000,0.3921,-0.3059,9.7211,28.010,27.6,1
2573079,-0.427,-0.366,0.061,0.4226,-0.3035,9.7193,27.967,27.6,1
2583083,-0.305,-0.366,-0.061,0.4034,-0.3148,9.7025,27.967,27.6,1
2593083,-0.366,-0.427,-0.183,0.3938,-0.3059,9.6965,27.996,27.6,1
2603095,-0.366,-0.427,-0.122,0.3831,-0.3065,9.7157,28.051,27.6,1
2613095,-0.366,-0.366,-0.061,0.3705,-0.3274,9.7025,28.008,27.6,1
2623102,-0.366,-0.366,-0.061,0.3843,-0.3124,9.6654,28.057,27.6,1
2633110,-0.366,-0.366,-0.122,0.3998,-0.3160,9.7037,27.980,27.6,1
2643121,-0.305,-0.366,-0.122,0.3621,-0.3286,9.7211,27.996,27.6,1
2653133,-0.305,-0.366,-0.061,0.4022,-0.3334,9.7294,28.004,27.6,1
2663133,-0.305,-0.366,-0.061,0.3897,-0.3142,9.7157,27.990,27.6,1
2673146,-0.366,-0.427,-0.061,0.3980,-0.3190,9.6983,28.045,27.6,1
2683146,-0.366,-0.427,-0.122,0.3843,-0.3286,9.7246,28.072,27.6,1
2693146,-0.366,-0.427,-0.061,0.3867,-0.3184,9.7025,28.045,27.6,1
2703151,-0.427,-0.366,0.000,0.3938,-0.3130,9.7001,27.965,27.6,1
2713161,-0.366,-0.366,0.000,0.3855,-0.3178,9.7169,28.029,27.6,1
2723166,-0.366,-0.305,-0.061,0.4010,-0.3160,9.7025,27.998,27.6,1
2733176,-0.305,-0.427,-0.122,0.3992,-0.3190,9.7073,28.064,27.6,1
2743182,-0.305,-0.427,-0.061,0.4166,-0.3238,9.6929,28.018,27.6,1
2753191,-0.305,-0.366,0.000,0.3795,-0.3148,9.6995,28.002,27.6,1
2763192,-0.305,-0.488,-0.122,0.3795,-0.3142,9.6881,28.002,27.6,1
2773198,-0.305,-0.427,-0.122,0.3849,-0.3100,9.7091,28.014,27.6,1
2783207,-0.305,-0.366,-0.061,0.3926,-0.3148,9.6953,28.012,27.6,1
2793209,-0.305,-0.427,-0.061,0.4112,-0.3059,9.7193,28.010,27.6,1
2803209,-0.305,-0.305,0.000,0.3950,-0.3262,9.7300,28.029,27.6,1
2813222,-0.305,-0.305,0.000,0.3765,-0.3292,9.7270,27.996,27.6,1
2823224,-0.366,-0.305,-0.122,0.4022,-0.3250,9.6947,28.016,27.6,1
2833229,-0.366,-0.305,-0.061,0.3831,-0.3077,9.7091,28.043,27.6,1
2843239,-0.305,-0.305,-0.122,0.3777,-0.3202,9.7217,28.020,27.6,1
2853239,-0.244,-0.366,-0.183,0.3986,-0.2999,9.7211,27.994,27.6,1
2863252,-0.305,-0.366,-0.061,0.3974,-0.3005,9.6947,28.059,27.6,1
2873258,-0.305,-0.366,-0.061,0.3921,-0.2957,9.6971,28.010,27.6,1
2883272,-0.244,-0.366,-0.122,0.3699,-0.3184,9.6983,28.068,27.6,1
2893273,-0.244,-0.366,-0.122,0.3879,-0.3184,9.7378,28.002,27.6,1
2903283,-0.244,-0.244,-0.122,0.3879,-0.3256,9.6989,27.984,27.6,1
2913292,-0.305,-0.427,-0.061,0.3956,-0.3190,9.6911,28.035,27.6,1
2923303,-0.366,-0.366,-0.061,0.3944,-0.3238,9.7025,28.094,27.6,1
2933304,-0.305,-0.366,-0.061,0.4028,-0.3244,9.7145,28.035,27.6,1
2943316,-0.305,-0.427,-0.061,0.3729,-0.3142,9.7025,28.035,27.6,1
2953328,-0.366,-0.488,-0.122,0.3903,-0.3029,9.7025,28.025,27.6,1
2963334,-0.305,-0.366,0.000,0.3950,-0.2927,9.7013,28.039,27.6,1
2973335,-0.305,-0.366,-0.122,0.3879,-0.3142,9.7282,28.064,27.6,1
2983349,-0.427,-0.427,-0.061,0.3837,-0.3124,9.7235,28.020,27.6,1
2993350,-0.366,-0.366,0.061,0.3813,-0.3071,9.6816,28.033,27.6,1
3003364,-0.244,-0.366,-0.061,0.4142,-0.3017,9.7007,28.021,27.6,1
3013374,-0.366,-0.366,-0.122,0.4004,-0.3178,9.7049,28.012,27.6,1
3023376,-0.427,-0.427,0.000,0.4064,-0.3232,9.7115,28.004,27.6,1
3033380,-0.366,-0.427,0.000,0.3944,-0.3202,9.6863,28.051,27.6,1
3043392,-0.366,-0.366,-0.061,0.3807,-0.3232,9.7109,28.027,27.6,1
3053395,-0.305,-0.305,-0.122,0.3753,-0.3095,9.7127,28.062,27.6,1
3063399,-0.305,-0.305,-0.122,0.3777,-0.3083,9.7270,27.996,27.6,1
3073405,-0.305,-0.305,-0.061,0.4034,-0.3136,9.7019,28.055,27.6,1
3083414,-0.305,-0.366,-0.122,0.3777,-0.3071,9.6947,28.045,27.6,1
3093420,-0.244,-0.366,-0.061,0.3759,-0.3023,9.7276,28.066,27.6,1
3103422,-0.366,-0.366,-0.061,0.3873,-0.3184,9.7193,28.027,27.6,1
3113422,-0.305,-0.366,-0.061,0.3944,-0.3346,9.7211,28.027,27.6,1
3123435,-0.366,-0.366,-0.122,0.3932,-0.3118,9.7103,28.037,27.6,1
3133441,-0.366,-0.366,0.000,0.3909,-0.3089,9.7187,28.018,27.6,1
3143441,-0.366,-0.366,0.000,0.3921,-0.3083,9.7187,28.057,27.6,1
3153445,-0.305,-0.366,0.000,0.3903,-0.3065,9.6983,28.045,27.6,1
3163445,-0.305,-0.366,-0.061,0.3938,-0.3208,9.7037,28.006,27.6,1
3173453,-0.305,-0.427,-0.122,0.3555,-0.3298,9.6959,28.045,27.6,1
3183456,-0.305,-0.427,-0.061,0.3783,-0.3352,9.7079,28.047,27.6,1
3193456,-0.305,-0.427,-0.122,0.3807,-0.3262,9.7007,28.057,27.6,1
3203466,-0.305,-0.366,0.000,0.3825,-0.3238,9.7025,28.021,27.6,1
3213468,-0.366,-0.366,-0.061,0.3831,-0.3226,9.7145,28.033,27.6,1
3223468,-0.366,-0.305,-0.122,0.3909,-0.3202,9.6863,28.008,27.6,1
3233471,-0.366,-0.305,-0.061,0.4010,-0.3304,9.7438,28.059,27.6,1
3243483,-0.305,-0.366,-0.061,0.3735,-0.3394,9.7264,28.002,27.6,1
3253486,-0.427,-0.305,-0.061,0.3968,-0.3388,9.6959,28.061,27.6,1
3263486,-0.427,-0.366,-0.061,0.3819,-0.3184,9.7031,28.043,27.6,1
3273487,-0.366,-0.366,-0.122,0.3633,-0.3304,9.6881,28.047,27.6,1
3283498,-0.427,-0.427,0.000,0.3915,-0.3226,9.6941,28.033,27.6,1
3293512,-0.244,-0.366,-0.061,0.3932,-0.3220,9.7217,28.033,27.6,1
3303518,-0.305,-0.366,-0.122,0.3759,-0.3214,9.7055,28.045,27.6,1
3313531,-0.366,-0.366,0.000,0.3819,-0.3310,9.7252,28.045,27.6,1
3323531,-0.305,-0.305,-0.061,0.4004,-0.3292,9.6995,28.012,27.6,1
3333541,-0.305,-0.305,-0.183,0.4076,-0.3352,9.7157,28.037,27.6,1
3343554,-0.366,-0.427,-0.122,0.3891,-0.3352,9.7246,28.018,27.6,1
3353562,-0.366,-0.427,0.000,0.3932,-0.3226,9.7019,28.035,27.6,1
3363562,-0.366,-0.366,-0.061,0.3855,-0.3106,9.7037,28.051,27.6,1
3373574,-0.305,-0.366,-0.061,0.3938,-0.3130,9.7354,28.039,27.6,1
3383577,-0.305,-0.366,-0.122,0.3974,-0.3304,9.7187,28.027,27.6,1
3393577,-0.305,-0.366,-0.122,0.3909,-0.3316,9.7073,28.055,27.6,1
3403586,-0.305,-0.366,-0.122,0.3855,-0.3190,9.7258,28.074,27.6,1
3413586,-0.366,-0.366,-0.061,0.3968,-0.3352,9.7276,28.041,28.6,1
3423595,-0.305,-0.427,-0.122,0.3891,-0.3190,9.6941,28.029,27.6,1
3433598,-0.366,-0.427,-0.061,0.3771,-0.3250,9.6732,28.010,27.6,1
3443610,-0.305,-0.427,-0.122,0.4052,-0.3328,9.6750,28.041,27.6,1
3453617,-0.305,-0.366,-0.061,0.3759,-0.3142,9.6917,27.998,27.6,1
3463623,-0.427,-0.366,-0.122,0.3903,-0.3148,9.7145,28.023,27.6,1
3473637,-0.427,-0.305,-0.122,0.3974,-0.3172,9.7169,28.023,27.6,1
3483647,-0.305,-0.366,-0.061,0.3921,-0.3178,9.6953,28.000,27.6,1
3493655,-0.366,-0.427,0.000,0.3921,-0.3184,9.7360,28.055,27.6,1
3503655,-0.305,-0.366,-0.061,0.3932,-0.3394,9.7241,28.039,27.6,1
3513655,-0.366,-0.366,-0.122,0.3926,-0.3166,9.7007,28.049,27.6,1
3523655,-0.427,-0.366,-0.061,0.3903,-0.3208,9.7300,28.053,27.6,1
3533655,-0.366,-0.366,-0.061,0.4130,-0.3238,9.7001,28.047,27.6,1
3543663,-0.366,-0.366,0.000,0.3950,-0.3388,9.6839,28.016,27.6,1
3553663,-0.366,-0.366,0.000,0.3903,-0.3292,9.6959,28.068,27.6,1
3563666,-0.427,-0.366,-0.122,0.3950,-0.3160,9.7139,27.996,27.6,1
3573669,-0.366,-0.427,-0.061,0.3873,-0.3262,9.6983,28.061,27.6,1
3583683,-0.305,-0.427,-0.061,0.3837,-0.3178,9.7175,28.045,27.6,1
3593693,-0.366,-0.366,-0.061,0.4136,-0.3202,9.6995,28.070,27.6,1
3603701,-0.366,-0.366,-0.122,0.3825,-0.3190,9.7019,28.023,27.6,1
3613701,-0.427,-0.427,-0.061,0.3932,-0.3364,9.7043,28.051,27.6,1
3623705,-0.305,-0.488,0.061,0.3807,-0.3262,9.6905,28.035,27.6,1
3633705,-0.305,-0.488,-0.122,0.4088,-0.3250,9.7193,28.035,27.6,1
3643705,-0.366,-0.427,-0.122,0.3693,-0.3262,9.6971,28.035,27.6,1
3653708,-0.366,-0.366,-0.061,0.3741,-0.3286,9.7055,28.059,27.6,1
3663716,-0.366,-0.305,-0.061,0.3938,-0.3304,9.6810,28.027,27.6,1
3673720,-0.244,-0.488,-0.122,0.3962,-0.3340,9.6935,28.035,27.6,1
3683723,-0.244,-0.366,0.000,0.3950,-0.3316,9.6983,28.076,27.6,1
3693732,-0.366,-0.366,-0.061,0.3986,-0.3220,9.7163,28.018,27.6,1
3703747,-0.305,-0.427,-0.061,0.3891,-0.3238,9.7049,28.051,27.6,1
3713754,-0.366,-0.366,-0.061,0.3932,-0.3208,9.7043,28.045,27.6,1
3723766,-0.366,-0.427,-0.122,0.4004,-0.3436,9.7085,28.045,27.6,1
3733777,-0.305,-0.366,0.000,0.3932,-0.3406,9.7193,28.023,27.6,1
3743777,-0.427,-0.366,0.000,0.3813,-0.3262,9.7157,28.045,27.6,1
3753781,-0.366,-0.366,-0.061,0.3998,-0.3346,9.6983,28.059,27.6,1
3763792,-0.366,-0.305,-0.122,0.3891,-0.3226,9.6881,28.064,27.6,1
3773800,-0.305,-0.427,-0.061,0.3771,-0.3148,9.7007,28.076,27.6,1
3783808,-0.427,-0.488,0.000,0.3843,-0.3364,9.7037,28.092,27.6,1
3793820,-0.427,-0.427,-0.122,0.4022,-0.3130,9.7067,28.033,27.6,1
3803826,-0.305,-0.427,-0.122,0.3998,-0.3490,9.7097,28.039,27.6,1
3813826,-0.366,-0.366,-0.122,0.3950,-0.3364,9.7079,28.061,27.6,1
3823838,-0.366,-0.366,-0.122,0.3968,-0.3154,9.7055,28.061,27.6,1
3833851,-0.366,-0.366,-0.061,0.3891,-0.3280,9.6893,28.053,27.6,1
3843853,-0.366,-0.305,0.000,0.3932,-0.3208,9.7187,28.082,27.6,1
3853866,-0.366,-0.427,-0.122,0.3831,-0.3124,9.7157,28.045,27.6,1
3863866,-0.366,-0.366,-0.122,0.3819,-0.3059,9.7061,28.033,27.6,1
3873869,-0.427,-0.366,-0.061,0.3932,-0.3047,9.6804,28.033,27.6,1
3883869,-0.427,-0.366,-0.122,0.3962,-0.3262,9.7049,28.053,27.6,1
3893869,-0.366,-0.427,-0.122,0.3980,-0.3172,9.7121,28.070,27.6,1
3903881,-0.244,-0.366,-0.061,0.3915,-0.3154,9.7091,28.035,27.6,1
3913881,-0.305,-0.366,-0.061,0.3909,-0.3208,9.6863,28.053,27.6,1
3923884,-0.366,-0.366,0.000,0.3980,-0.3280,9.7282,28.082,27.6,1
3933891,-0.305,-0.427,-0.061,0.3992,-0.3214,9.7187,28.076,27.6,1
3943903,-0.366,-0.427,-0.061,0.3861,-0.3268,9.7061,28.027,27.6,1
3953903,-0.427,-0.366,-0.061,0.3735,-0.3160,9.7049,28.070,27.6,1
3963914,-0.366,-0.427,-0.183,0.3801,-0.3226,9.7013,28.057,27.6,1
3973927,-0.366,-0.366,-0.061,0.4118,-0.3178,9.7282,28.084,27.6,1
3983927,-0.366,-0.366,-0.061,0.3926,-0.3244,9.7264,28.037,27.6,1
3993929,-0.244,-0.488,-0.122,0.3986,-0.3112,9.7121,28.062,27.6,1
4003934,-0.244,-0.366,-0.061,0.3909,-0.3262,9.7055,28.062,27.6,1
4013942,-0.366,-0.366,-0.061,0.3962,-0.3280,9.7085,28.104,27.6,1
4023952,-0.366,-0.366,-0.061,0.3891,-0.3256,9.7246,28.068,27.6,1
4033963,-0.366,-0.366,-0.061,0.3879,-0.3112,9.7258,28.086,27.6,1
4043963,-0.305,-0.366,-0.122,0.3897,-0.3202,9.7127,28.043,27.6,1
4053970,-0.305,-0.366,-0.122,0.3885,-0.3184,9.7127,28.088,28.6,1
4063979,-0.366,-0.366,-0.061,0.3992,-0.3148,9.7223,28.033,27.6,1
4073990,-0.366,-0.366,-0.061,0.4166,-0.3023,9.7229,28.055,27.6,1
4083990,-0.366,-0.427,-0.061,0.3861,-0.3124,9.7127,28.051,27.6,1
4093994,-0.305,-0.427,-0.061,0.3843,-0.3124,9.7043,28.053,27.6,1
4104006,-0.305,-0.366,-0.061,0.3807,-0.3214,9.7241,28.023,27.6,1
4114009,-0.305,-0.427,-0.061,0.3741,-0.3280,9.7163,28.043,27.6,1
4124024,-0.427,-0.488,0.000,0.3675,-0.3130,9.7312,28.092,27.6,1
4134030,-0.366,-0.366,-0.061,0.3813,-0.3065,9.7115,28.074,27.6,1
4144039,-0.305,-0.427,0.000,0.3813,-0.3011,9.7187,28.033,27.6,1
4154049,-0.305,-0.366,-0.122,0.3717,-0.3154,9.7246,28.020,27.6,1
4164060,-0.305,-0.427,-0.122,0.3915,-0.3083,9.7013,28.035,27.6,1
4174072,-0.244,-0.427,-0.122,0.3950,-0.3154,9.7384,28.049,27.6,1
4184072,-0.366,-0.366,0.000,0.3885,-0.3142,9.7163,28.049,27.6,1
4194085,-0.366,-0.366,-0.061,0.3837,-0.3142,9.6839,28.088,27.6,1
4204094,-0.366,-0.366,0.000,0.3861,-0.3089,9.6780,28.076,28.6,1
4214102,-0.366,-0.366,-0.061,0.3891,-0.3023,9.7336,28.018,27.6,1
4224105,-0.366,-0.366,-0.061,0.3867,-0.3130,9.7031,28.111,27.6,1
4234118,-0.305,-0.366,-0.122,0.3944,-0.3250,9.6971,28.029,27.6,1
4244125,-0.122,-0.366,-0.122,0.3915,-0.3083,9.7121,28.098,27.6,1
4254136,-0.244,-0.427,0.000,0.3831,-0.3136,9.7438,28.078,27.6,1
4264148,-0.305,-0.366,0.000,0.3777,-0.3077,9.7037,28.084,27.6,1
4274161,-0.244,-0.305,-0.061,0.3843,-0.3118,9.6893,28.053,27.6,1
4284161,-0.366,-0.366,-0.122,0.3753,-0.3124,9.7181,28.082,27.6,1
4294163,-0.366,-0.366,-0.122,0.3915,-0.3106,9.7241,28.080,27.6,1
4304167,-0.366,-0.366,-0.061,0.3753,-0.3274,9.7031,28.045,27.6,1
4314168,-0.305,-0.366,-0.122,0.3729,-0.3208,9.6995,28.041,27.6,1
4324179,-0.427,-0.366,0.000,0.3609,-0.3065,9.7288,28.051,27.6,1
4334192,-0.366,-0.305,-0.061,0.3950,-0.3124,9.7061,28.061,27.6,1
4344197,-0.305,-0.366,0.061,0.4070,-0.3130,9.7085,28.045,27.6,1
4354209,-0.366,-0.366,-0.061,0.3873,-0.3011,9.7151,28.045,27.6,1
4364217,-0.366,-0.427,-0.122,0.4046,-0.3029,9.7001,28.094,27.6,1
4374228,-0.244,-0.427,-0.061,0.3974,-0.3196,9.7139,28.072,27.6,1
4384228,-0.366,-0.427,-0.122,0.3986,-0.3023,9.7282,28.076,27.6,1
4394242,-0.366,-0.366,-0.122,0.3926,-0.2987,9.7276,28.041,27.6,1
4404242,-0.366,-0.366,0.000,0.3849,-0.3238,9.7235,28.037,27.6,1
4414255,-0.305,-0.427,-0.061,0.3986,-0.3023,9.7115,28.066,27.6,1
4424268,-0.244,-0.366,0.000,0.3932,-0.3202,9.7055,28.059,27.6,1
4434268,-0.305,-0.366,0.000,0.3795,-0.3220,9.7300,28.090,28.6,1
4444270,-0.305,-0.427,-0.061,0.3795,-0.3065,9.7175,28.039,27.6,1
4454277,-0.366,-0.427,0.000,0.4010,-0.3202,9.7288,28.045,27.6,1
4464277,-0.366,-0.427,-0.122,0.3992,-0.3178,9.7157,28.061,27.6,1
4474283,-0.366,-0.427,-0.061,0.3813,-0.3196,9.6899,28.041,27.6,1
4484288,-0.305,-0.366,-0.061,0.3789,-0.3178,9.6798,28.090,28.6,1
4494293,-0.244,-0.366,-0.061,0.3915,-0.3226,9.7264,28.049,27.6,1
4504304,-0.305,-0.366,-0.122,0.3921,-0.3250,9.7031,28.078,28.6,1
4514304,-0.305,-0.366,0.000,0.3915,-0.3190,9.7223,28.082,27.6,1
4524304,-0.427,-0.427,-0.061,0.3921,-0.3178,9.7217,28.047,27.6,1
4534315,-0.366,-0.366,-0.122,0.3903,-0.3112,9.7199,28.047,27.6,1
4544319,-0.305,-0.427,-0.122,0.3843,-0.3112,9.7091,28.043,27.6,1
4554333,-0.366,-0.427,-0.061,0.4010,-0.3184,9.7001,28.037,28.6,1
4564334,-0.427,-0.366,0.000,0.4130,-0.3292,9.7199,28.061,27.6,1
4574344,-0.305,-0.305,-0.122,0.3932,-0.3118,9.6917,28.076,27.6,1
4584344,-0.366,-0.366,-0.183,0.4034,-0.3184,9.7001,28.107,28.6,1
4594346,-0.366,-0.427,-0.061,0.3903,-0.3100,9.7199,28.090,27.6,1
4604354,-0.366,-0.366,-0.061,0.3938,-0.3130,9.7055,28.062,27.6,1
4614354,-0.366,-0.366,0.000,0.3801,-0.3196,9.7019,28.041,27.6,1
4624354,-0.305,-0.366,-0.061,0.3915,-0.3083,9.7348,28.014,28.6,1
4634361,-0.305,-0.366,-0.061,0.3962,-0.2987,9.7115,28.064,27.6,1
4644374,-0.366,-0.366,-0.122,0.3861,-0.3160,9.7019,28.045,27.6,1
4654376,-0.305,-0.305,-0.122,0.3849,-0.3334,9.7139,28.102,28.6,1
4664380,-0.305,-0.366,-0.122,0.3747,-0.3089,9.7193,28.070,27.6,1
4674380,-0.305,-0.366,0.000,0.3903,-0.3136,9.7109,28.061,28.6,1
4684380,-0.244,-0.366,-0.061,0.3932,-0.3142,9.7342,28.045,28.6,1
4694387,-0.366,-0.366,-0.061,0.3909,-0.3184,9.7139,28.053,28.6,1
4704390,-0.366,-0.366,-0.061,0.3956,-0.3124,9.7145,28.064,27.6,1
4714396,-0.244,-0.427,0.000,0.4226,-0.3148,9.7097,28.064,27.6,1
4724399,-0.366,-0.305,0.000,0.3926,-0.3106,9.7288,28.045,27.6,1
4734407,-0.366,-0.305,-0.061,0.3861,-0.3083,9.7079,28.092,27.6,1
4744414,-0.305,-0.427,0.000,0.3956,-0.3047,9.6887,28.082,27.6,1
4754420,-0.366,-0.427,-0.061,0.3968,-0.3256,9.7205,28.078,28.6,1
4764430,-0.427,-0.305,-0.061,0.3825,-0.3292,9.7013,28.062,28.6,1
4774437,-0.366,-0.366,-0.061,0.3980,-0.3089,9.7037,28.064,28.6,1
4784441,-0.366,-0.427,-0.061,0.3705,-0.2921,9.6983,28.055,27.6,1
4794441,-0.244,-0.305,0.000,0.3723,-0.3071,9.6953,28.051,27.6,1
4804453,-0.305,-0.305,-0.061,0.3837,-0.3208,9.7181,28.078,27.6,1
4814453,-0.305,-0.427,-0.122,0.4070,-0.3083,9.7330,28.092,27.6,1
4824453,-0.305,-0.427,-0.122,0.3867,-0.3106,9.7223,28.057,28.6,1
4834453,-0.244,-0.366,-0.122,0.3747,-0.3178,9.7175,28.066,27.6,1
4844466,-0.305,-0.366,-0.122,0.4028,-0.3017,9.7211,28.031,28.6,1
4854475,-0.366,-0.366,-0.061,0.4040,-0.2849,9.7025,28.070,28.6,1
4864475,-0.305,-0.366,-0.061,0.3926,-0.3142,9.6995,28.068,28.6,1
4874475,-0.305,-0.366,-0.061,0.3783,-0.3184,9.7474,28.070,27.6,1
4884475,-0.305,-0.366,-0.061,0.3873,-0.3023,9.7169,28.090,28.6,1
4894483,-0.427,-0.366,-0.061,0.3819,-0.3286,9.7139,28.090,27.6,1
4904491,-0.366,-0.366,-0.061,0.4070,-0.3220,9.7025,28.076,28.6,1
4914503,-0.305,-0.305,-0.122,0.4070,-0.3118,9.7163,28.062,27.6,1
4924511,-0.366,-0.305,-0.122,0.3807,-0.3100,9.7007,28.045,28.6,1
4934522,-0.366,-0.305,-0.122,0.3962,-0.3190,9.6917,28.068,28.6,1
4944534,-0.305,-0.366,-0.061,0.3837,-0.3220,9.6977,28.035,28.6,1
4954534,-0.305,-0.305,-0.061,0.4016,-0.3334,9.7163,28.057,28.6,1
4964547,-0.305,-0.427,-0.061,0.3986,-0.3226,9.7157,28.012,28.6,1
4974556,-0.366,-0.366,0.000,0.3891,-0.2999,9.7097,28.059,28.6,1
4984556,-0.305,-0.366,-0.061,0.3717,-0.3190,9.6905,28.084,28.6,1
4994562,-0.366,-0.366,0.000,0.3855,-0.3214,9.7031,28.102,28.6,1
5004564,-0.366,-0.366,-0.061,0.4010,-0.3148,9.7211,28.084,28.6,1
5014564,-0.427,-0.366,-0.061,0.3909,-0.3160,9.7019,28.082,27.6,1
5024567,-0.305,-0.427,0.000,0.3735,-0.2975,9.6810,28.033,28.6,1
5034579,-0.305,-0.366,-0.122,0.3831,-0.3047,9.6941,28.107,28.6,1
5044579,-0.366,-0.427,-0.061,0.3867,-0.3238,9.6935,28.094,28.6,1
5054586,-0.488,-0.366,-0.122,0.3879,-0.3316,9.7342,28.070,28.6,1
5064595,-0.427,-0.305,-0.061,0.3879,-0.3047,9.7097,28.070,28.6,1
5074595,-0.305,-0.366,-0.061,0.3992,-0.3160,9.7163,28.057,27.6,1
5084607,-0.305,-0.366,-0.061,0.4040,-0.3280,9.7175,28.043,27.6,1
5094617,-0.366,-0.366,-0.122,0.4088,-0.3106,9.7109,28.082,28.6,1
5104625,-0.305,-0.427,-0.061,0.3915,-0.3172,9.6965,28.064,28.6,1
5114625,-0.305,-0.366,-0.122,0.3807,-0.3130,9.7001,28.076,28.6,1
5124637,-0.366,-0.366,-0.061,0.3992,-0.2933,9.6983,28.096,28.6,1
5134647,-0.305,-0.366,-0.122,0.3795,-0.3112,9.7133,28.049,27.6,1
5144659,-0.366,-0.427,0.000,0.3885,-0.3274,9.6929,28.090,28.6,1
5154671,-0.366,-0.305,-0.061,0.4010,-0.3118,9.6995,28.076,28.6,1
5164678,-0.305,-0.427,-0.122,0.3938,-0.3280,9.7175,28.082,27.6,1
5174678,-0.244,-0.427,-0.061,0.3867,-0.3316,9.7037,28.094,27.6,1
5184689,-0.366,-0.305,-0.061,0.3980,-0.3208,9.6953,28.074,28.6,1
5194701,-0.305,-0.366,-0.061,0.4016,-0.3142,9.7037,28.033,28.6,1
5204714,-0.427,-0.366,-0.061,0.3926,-0.3226,9.6893,28.021,28.6,1
5214721,-0.427,-0.427,-0.122,0.3909,-0.3142,9.7169,28.049,28.6,1
5224721,-0.366,-0.427,0.000,0.3819,-0.3190,9.7037,28.078,28.6,1
5234732,-0.244,-0.427,0.000,0.3944,-0.3160,9.7001,28.084,28.6,1
5244744,-0.305,-0.427,-0.061,0.3980,-0.3065,9.7097,28.084,27.6,1
5254750,-0.427,-0.427,-0.061,0.3879,-0.3041,9.7157,28.088,28.6,1
5264762,-0.305,-0.427,-0.061,0.3926,-0.3202,9.7223,28.074,28.6,1
5274769,-0.427,-0.488,0.000,0.3956,-0.2981,9.7348,28.078,28.6,1
5284781,-0.305,-0.366,0.000,0.3915,-0.3106,9.6905,28.047,28.6,1
5294795,-0.305,-0.366,0.000,0.3891,-0.3298,9.7270,28.072,28.6,1
5304800,-0.305,-0.427,-0.122,0.3962,-0.3226,9.6965,28.066,28.6,1
5314811,-0.366,-0.427,-0.061,0.3843,-0.3166,9.7043,28.076,28.6,1
5324812,-0.366,-0.427,-0.061,0.3873,-0.3148,9.7169,28.033,28.6,1
5334823,-0.366,-0.427,-0.061,0.3909,-0.3184,9.7360,28.074,28.6,1
5344836,-0.305,-0.427,0.000,0.3915,-0.3124,9.7073,28.031,28.6,1
5354845,-0.305,-0.366,0.000,0.3855,-0.3124,9.6995,28.064,28.6,1
5364845,-0.427,-0.366,0.000,0.3771,-0.3029,9.7025,28.076,28.6,1
5374857,-0.427,-0.366,-0.122,0.3831,-0.3089,9.7001,28.047,28.6,1
5384857,-0.427,-0.366,-0.122,0.3921,-0.3244,9.7109,28.057,28.6,1
5394867,-0.305,-0.366,-0.061,0.3795,-0.3118,9.6887,28.090,28.6,1
5404876,-0.366,-0.366,-0.061,0.3825,-0.3172,9.6983,28.102,28.6,1
5414881,-0.366,-0.366,0.000,0.3903,-0.2963,9.7067,28.094,28.6,1
5424884,-0.305,-0.305,-0.061,0.3897,-0.3118,9.7067,28.094,28.6,1
5434897,-0.366,-0.427,0.000,0.3789,-0.3352,9.7205,28.078,28.6,1
5444909,-0.305,-0.366,-0.061,0.3759,-0.3142,9.6971,28.102,28.6,1
5454918,-0.427,-0.305,-0.122,0.3849,-0.3208,9.6726,28.076,28.6,1
5464929,-0.366,-0.427,-0.122,0.3849,-0.3298,9.6965,28.094,28.6,1
5474932,-0.366,-0.427,0.000,0.4052,-0.3112,9.7205,28.066,28.6,1
5484932,-0.305,-0.366,0.000,0.3980,-0.3130,9.7324,28.061,27.6,1
5494945,-0.366,-0.366,0.000,0.3777,-0.3011,9.7085,28.059,28.6,1
5504957,-0.366,-0.427,-0.061,0.3687,-0.3232,9.6971,28.062,28.6,1
5514963,-0.427,-0.427,-0.122,0.4028,-0.3077,9.6971,28.086,28.6,1
5524973,-0.427,-0.366,-0.061,0.3885,-0.3142,9.7139,28.127,28.6,1
5534975,-0.366,-0.366,-0.061,0.3992,-0.3112,9.7205,28.133,28.6,1
5544975,-0.305,-0.366,-0.061,0.3819,-0.3083,9.6953,28.045,28.6,1
5554975,-0.305,-0.427,-0.061,0.4040,-0.2903,9.7025,28.041,28.6,1
5564975,-0.305,-0.427,-0.061,0.3837,-0.3148,9.6989,28.059,27.6,1
5574982,-0.366,-0.366,0.000,0.3926,-0.3005,9.7270,28.059,28.6,1
5584990,-0.366,-0.305,0.000,0.3801,-0.2975,9.7055,28.057,28.6,1
5594997,-0.305,-0.366,-0.061,0.3669,-0.3100,9.7241,28.078,28.6,1
5604997,-0.366,-0.366,-0.122,0.3986,-0.3148,9.6995,28.078,28.6,1
5615009,-0.366,-0.366,0.000,0.3873,-0.3274,9.7252,28.025,28.6,1
5625022,-0.366,-0.366,-0.061,0.4004,-0.3047,9.7282,28.090,28.6,1
5635024,-0.305,-0.305,-0.061,0.4100,-0.3112,9.6917,28.045,28.6,1
5645030,-0.366,-0.366,-0.061,0.3897,-0.3035,9.7037,28.107,28.6,1
5655030,-0.366,-0.427,-0.061,0.3915,-0.3178,9.7097,28.082,27.6,1
5665037,-0.305,-0.366,0.061,0.4022,-0.3232,9.7073,28.096,28.6,1
5675039,-0.305,-0.427,0.000,0.3837,-0.3089,9.7019,28.059,28.6,1
5685045,-0.366,-0.366,0.000,0.3974,-0.3095,9.7085,28.084,28.6,1
5695054,-0.366,-0.366,0.061,0.3938,-0.3136,9.7264,28.090,28.6,1
5705054,-0.366,-0.366,0.000,0.3843,-0.3035,9.6911,28.066,28.6,1
5715068,-0.366,-0.366,0.000,0.3855,-0.3160,9.6863,28.084,28.6,1
5725070,-0.366,-0.427,0.000,0.3831,-0.3118,9.7103,28.055,28.6,1
5735075,-0.366,-0.366,0.000,0.4034,-0.3077,9.7324,28.082,28.6,1
5745085,-0.366,-0.427,-0.061,0.3825,-0.3071,9.7211,28.078,28.6,1
5755085,-0.427,-0.366,0.000,0.3891,-0.3017,9.7031,28.078,28.6,1
5765095,-0.427,-0.366,-0.061,0.3771,-0.3041,9.7007,28.086,28.6,1
5775100,-0.427,-0.305,0.000,0.3915,-0.3196,9.7031,28.086,28.6,1
5785113,-0.366,-0.427,-0.122,0.3992,-0.3142,9.7163,28.090,28.6,1
5795115,-0.305,-0.427,-0.122,0.3879,-0.2933,9.7067,28.070,28.6,1
5805128,-0.366,-0.366,0.000,0.3903,-0.2987,9.7079,28.068,28.6,1
5815131,-0.305,-0.366,-0.061,0.3938,-0.3095,9.7169,28.090,28.6,1
5825133,-0.366,-0.366,-0.061,0.3837,-0.3124,9.7109,28.102,28.6,1
5835136,-0.305,-0.366,0.000,0.3783,-0.3136,9.6935,28.086,28.6,1
5845148,-0.244,-0.366,-0.061,0.4118,-0.2999,9.7217,28.061,28.6,1
5855148,-0.305,-0.366,-0.122,0.3915,-0.3124,9.7139,28.070,28.6,1
5865148,-0.366,-0.366,0.000,0.3873,-0.3035,9.7091,28.086,28.6,1
5875148,-0.305,-0.305,-0.061,0.3831,-0.3029,9.7007,28.088,28.6,1
5885152,-0.244,-0.366,-0.122,0.3765,-0.3035,9.7073,28.076,28.6,1
5895163,-0.366,-0.366,-0.061,0.3813,-0.3196,9.7019,28.055,28.6,1
5905167,-0.305,-0.366,-0.122,0.3855,-0.3310,9.7097,28.055,28.6,1
5915171,-0.305,-0.366,-0.122,0.3699,-0.3208,9.7235,28.092,28.6,1
5925171,-0.366,-0.366,-0.122,0.3962,-0.3047,9.7151,28.061,28.6,1
5935182,-0.366,-0.366,-0.061,0.3944,-0.3029,9.7001,28.086,28.6,1
5945194,-0.366,-0.366,-0.061,0.3921,-0.3106,9.7241,28.070,28.6,1
5955197,-0.305,-0.366,-0.061,0.3921,-0.3106,9.6983,28.070,28.6,1
5965211,-0.305,-0.305,0.000,0.4094,-0.3148,9.7055,28.090,28.6,1
5975223,-0.183,-0.305,-0.061,0.4052,-0.3118,9.7115,28.086,28.6,1
5985224,-0.305,-0.366,0.000,0.3974,-0.3059,9.7187,28.104,28.6,1
5995224,-0.305,-0.366,0.000,0.3777,-0.3095,9.7175,28.084,28.6,1
6005224,-0.305,-0.427,-0.061,0.3765,-0.3071,9.6887,28.088,28.6,1
6015227,-0.366,-0.366,-0.061,0.4040,-0.3100,9.6953,28.096,28.6,1
6025240,-0.305,-0.427,-0.061,0.3843,-0.3142,9.7193,28.125,28.6,1
6035252,-0.305,-0.366,0.000,0.3855,-0.3065,9.7205,28.137,28.6,1
6045255,-0.366,-0.366,0.000,0.3873,-0.3250,9.7103,28.102,28.6,1
6055255,-0.427,-0.366,-0.061,0.3885,-0.3148,9.6905,28.072,28.6,1
6065258,-0.366,-0.366,-0.061,0.3885,-0.3160,9.7025,28.051,28.6,1
6075262,-0.366,-0.427,0.000,0.3950,-0.3208,9.6965,28.070,28.6,1
6085268,-0.366,-0.427,-0.061,0.3885,-0.2969,9.7043,28.084,28.6,1
6095272,-0.305,-0.305,-0.122,0.3831,-0.3166,9.7079,28.088,28.6,1
6105273,-0.366,-0.366,-0.061,0.3861,-0.3274,9.7288,28.049,28.6,1
6115275,-0.366,-0.305,-0.061,0.3867,-0.3394,9.7175,28.084,28.6,1
6125289,-0.366,-0.366,-0.061,0.4004,-0.2987,9.7121,28.068,28.6,1
6135289,-0.305,-0.488,-0.061,0.3968,-0.3154,9.7085,28.068,28.6,1
6145290,-0.305,-0.427,0.000,0.4052,-0.3112,9.7145,28.068,28.6,1
6155293,-0.305,-0.366,-0.061,0.4076,-0.3089,9.7037,28.100,28.6,1
6165293,-0.366,-0.305,-0.061,0.3903,-0.3095,9.7133,28.055,28.6,1
6175293,-0.305,-0.366,-0.122,0.3849,-0.3172,9.6941,28.084,28.6,1
6185304,-0.366,-0.427,-0.061,0.3759,-0.3268,9.6941,28.078,28.6,1
6195313,-0.366,-0.366,-0.061,0.4034,-0.3220,9.7270,28.107,28.6,1
6205323,-0.305,-0.427,-0.061,0.3879,-0.3202,9.7181,28.062,28.6,1
6215334,-0.305,-0.427,0.000,0.3926,-0.3017,9.7181,28.092,28.6,1
6225344,-0.305,-0.427,-0.061,0.3986,-0.3065,9.7199,28.096,28.6,1
6235346,-0.305,-0.427,-0.061,0.4028,-0.3190,9.6977,28.084,28.6,1
6245354,-0.366,-0.305,-0.122,0.4052,-0.3130,9.7043,28.070,28.6,1
6255363,-0.427,-0.366,-0.122,0.4166,-0.3011,9.7073,28.031,28.6,1
6265374,-0.488,-0.366,-0.061,0.3986,-0.3077,9.6917,28.135,28.6,1
6275376,-0.366,-0.427,0.000,0.3944,-0.3100,9.6953,28.084,28.6,1
6285376,-0.305,-0.427,-0.061,0.3861,-0.2981,9.7145,28.090,28.6,1
6295384,-0.366,-0.427,-0.122,0.3861,-0.3226,9.7157,28.072,28.6,1
6305389,-0.305,-0.488,-0.061,0.4076,-0.3112,9.7091,28.072,28.6,1
6315392,-0.305,-0.488,0.000,0.3903,-0.3142,9.7007,28.059,28.6,1
6325405,-0.366,-0.427,-0.061,0.3765,-0.3304,9.6965,28.074,28.6,1
6335410,-0.305,-0.366,-0.061,0.3717,-0.3130,9.7013,28.076,28.6,1
6345422,-0.305,-0.305,-0.061,0.3897,-0.3059,9.7145,28.076,28.6,1
6355426,-0.366,-0.305,-0.061,0.3879,-0.3196,9.6935,28.023,28.6,1
6365426,-0.366,-0.427,-0.061,0.3903,-0.3154,9.6929,28.070,28.6,1
6375430,-0.305,-0.366,0.000,0.4040,-0.3220,9.7282,28.102,28.6,1
6385430,-0.305,-0.366,-0.061,0.4082,-0.2987,9.6971,28.070,28.6,1
6395433,-0.305,-0.366,-0.061,0.3986,-0.3238,9.7121,28.074,28.6,1
6405436,-0.305,-0.427,-0.061,0.3968,-0.3274,9.7306,28.100,28.6,1
6415436,-0.305,-0.427,-0.061,0.3909,-0.3118,9.6977,28.086,28.6,1
6425437,-0.366,-0.366,-0.061,0.3873,-0.3202,9.6929,28.076,28.6,1
6435437,-0.366,-0.366,-0.122,0.3998,-0.3124,9.7049,28.076,28.6,1
6445437,-0.366,-0.366,-0.122,0.3909,-0.3112,9.7288,28.125,28.6,1
6455441,-0.366,-0.366,-0.183,0.3849,-0.3238,9.7169,28.070,28.6,1
6465453,-0.366,-0.366,-0.061,0.4088,-0.3059,9.7235,28.084,28.6,1
6475453,-0.305,-0.366,-0.061,0.3867,-0.3005,9.6947,28.098,28.6,1
6485456,-0.427,-0.366,-0.183,0.3992,-0.3083,9.7199,28.098,28.6,1
6495456,-0.366,-0.366,-0.122,0.4028,-0.3310,9.7001,28.055,28.6,1
6505470,-0.305,-0.366,0.000,0.4088,-0.3148,9.7031,28.020,28.6,1
6515483,-0.366,-0.366,-0.061,0.3789,-0.3005,9.7157,28.062,28.6,1
6525483,-0.366,-0.427,-0.061,0.3609,-0.3154,9.6851,28.084,28.6,1
6535491,-0.244,-0.488,-0.061,0.3813,-0.3256,9.6672,28.107,28.6,1
6545491,-0.305,-0.366,-0.122,0.3789,-0.3184,9.6881,28.105,28.6,1
6555491,-0.366,-0.305,-0.061,0.3909,-0.3220,9.6822,28.066,28.6,1
6565502,-0.366,-0.305,-0.061,0.4028,-0.3196,9.7121,28.078,28.6,1
6575511,-0.366,-0.366,0.000,0.4106,-0.3226,9.6977,28.076,28.6,1
6585518,-0.366,-0.427,0.000,0.3879,-0.3310,9.7127,28.096,28.6,1
6595518,-0.366,-0.366,-0.183,0.3615,-0.3226,9.7013,28.100,28.6,1
6605532,-0.366,-0.366,-0.122,0.3777,-0.3112,9.7193,28.047,28.6,1
6615541,-0.427,-0.366,-0.061,0.3915,-0.3232,9.7067,28.076,28.6,1
6625547,-0.305,-0.366,-0.061,0.3926,-0.3250,9.7007,28.074,28.6,1
6635549,-0.305,-0.366,-0.061,0.3968,-0.3286,9.7025,28.043,28.6,1
6645559,-0.305,-0.366,-0.061,0.4004,-0.3328,9.6911,28.139,28.6,1
6655568,-0.366,-0.305,-0.061,0.3897,-0.3208,9.7025,28.102,28.6,1
6665577,-0.366,-0.366,-0.061,0.4064,-0.3124,9.7145,28.102,28.6,1
6675586,-0.366,-0.305,-0.061,0.3855,-0.3226,9.6935,28.061,28.6,1
6685592,-0.305,-0.305,-0.122,0.3819,-0.3232,9.7127,28.109,28.6,1
6695598,-0.366,-0.366,-0.061,0.3873,-0.3412,9.7067,28.057,28.6,1
6705605,-0.366,-0.305,0.000,0.4154,-0.3358,9.6923,28.090,28.6,1
6715617,-0.305,-0.366,-0.061,0.4040,-0.3316,9.7163,28.086,28.6,1
6725629,-0.305,-0.366,-0.061,0.3819,-0.3196,9.7007,28.076,28.6,1
6735638,-0.305,-0.366,-0.061,0.3944,-0.3262,9.7217,28.031,28.6,1
6745647,-0.305,-0.366,-0.183,0.3861,-0.3292,9.7235,28.064,28.6,1
6755647,-0.427,-0.366,-0.061,0.3885,-0.3166,9.7097,28.105,28.6,1
6765655,-0.366,-0.366,0.000,0.3956,-0.3286,9.7205,28.053,28.6,1
6775659,-0.427,-0.366,-0.061,0.3944,-0.3250,9.7115,28.074,28.6,1
6785671,-0.244,-0.427,-0.061,0.3825,-0.3322,9.7031,28.100,28.6,1
6795674,-0.366,-0.366,0.000,0.4058,-0.3412,9.7169,28.082,28.6,1
6805686,-0.305,-0.366,0.061,0.3932,-0.3286,9.7360,28.082,28.6,1
6815686,-0.305,-0.427,-0.061,0.3915,-0.3130,9.7133,28.098,28.6,1
6825699,-0.366,-0.366,0.000,0.3813,-0.3077,9.7061,28.090,28.6,1
6835705,-0.427,-0.305,-0.061,0.3944,-0.3274,9.6863,28.111,28.6,1
6845716,-0.366,-0.427,-0.061,0.3879,-0.3274,9.6905,28.111,28.6,1
6855719,-0.366,-0.366,-0.061,0.4034,-0.3298,9.6935,28.121,28.6,1
6865723,-0.244,-0.366,0.000,0.3861,-0.3364,9.6965,28.080,28.6,1
6875723,-0.305,-0.427,-0.061,0.3777,-0.3424,9.6929,28.074,28.6,1
6885723,-0.305,-0.427,-0.122,0.3992,-0.3394,9.7139,28.064,28.6,1
6895733,-0.305,-0.366,0.000,0.3861,-0.3280,9.7181,28.047,28.6,1
6905744,-0.244,-0.427,-0.061,0.3962,-0.3268,9.7013,28.094,28.6,1
6915753,-0.244,-0.488,-0.122,0.3992,-0.3130,9.6911,28.086,28.6,1
6925759,-0.305,-0.427,0.000,0.3950,-0.3298,9.6869,28.109,28.6,1
6935765,-0.366,-0.427,0.000,0.3879,-0.3298,9.7121,28.076,28.6,1
6945769,-0.366,-0.427,0.000,0.3897,-0.3286,9.7223,28.086,28.6,1
6955777,-0.427,-0.366,-0.061,0.3885,-0.3346,9.6869,28.113,28.6,1
6965781,-0.305,-0.427,-0.061,0.3968,-0.3334,9.7414,28.098,28.6,1
6975781,-0.427,-0.305,-0.061,0.3885,-0.3220,9.7217,28.070,28.6,1
6985792,-0.366,-0.366,-0.061,0.3837,-0.3077,9.7007,28.104,28.6,1
6995805,-0.366,-0.366,-0.061,0.3992,-0.3095,9.7193,28.084,28.6,1
7005808,-0.305,-0.427,-0.122,0.3944,-0.3244,9.7288,28.062,28.6,1
7015815,-0.305,-0.427,0.000,0.3921,-0.3280,9.7127,28.062,28.6,1
7025815,-0.305,-0.427,0.000,0.3765,-0.3268,9.7073,28.061,28.6,1
7035826,-0.305,-0.427,-0.122,0.3843,-0.3334,9.7318,28.135,28.6,1
7045838,-0.366,-0.305,-0.122,0.3962,-0.3214,9.7199,28.084,28.6,1
7055838,-0.366,-0.427,-0.061,0.3932,-0.3106,9.7193,28.084,28.6,1
7065851,-0.366,-0.366,0.000,0.3950,-0.3208,9.7043,28.146,28.6,1
7075851,-0.366,-0.305,-0.061,0.4058,-0.3208,9.7139,28.096,28.6,1
7085853,-0.366,-0.427,0.000,0.3885,-0.3089,9.6923,28.059,28.6,1
7095867,-0.427,-0.427,-0.061,0.3909,-0.3172,9.6756,28.057,28.6,1
7105869,-0.488,-0.366,-0.122,0.3789,-0.3238,9.7282,28.105,28.6,1
7115881,-0.427,-0.366,-0.122,0.4022,-0.3071,9.7211,28.055,28.6,1
7125881,-0.366,-0.427,0.000,0.3705,-0.3232,9.7151,28.090,28.6,1
7135884,-0.366,-0.427,-0.122,0.3867,-0.3250,9.7145,28.076,28.6,1
7145887,-0.305,-0.366,0.000,0.3944,-0.3256,9.6869,28.090,28.6,1
7155887,-0.305,-0.366,-0.122,0.3879,-0.3334,9.7169,28.062,28.6,1
7165897,-0.305,-0.366,-0.122,0.3837,-0.3316,9.7211,28.090,28.6,1
7175903,-0.366,-0.366,0.061,0.4046,-0.3190,9.7055,28.100,28.6,1
7185903,-0.366,-0.427,0.000,0.4046,-0.3466,9.7139,28.084,28.6,1
7195917,-0.305,-0.366,-0.061,0.3998,-0.3352,9.7013,28.084,28.6,1
7205918,-0.366,-0.366,-0.061,0.4064,-0.3328,9.7109,28.049,28.6,1
7215932,-0.366,-0.427,-0.061,0.3891,-0.3220,9.7300,28.107,28.6,1
7225943,-0.305,-0.427,-0.061,0.3885,-0.3202,9.7133,28.094,28.6,1
7235945,-0.305,-0.427,0.000,0.3897,-0.3166,9.6863,28.119,28.6,1
7245957,-0.366,-0.488,0.000,0.3795,-0.3250,9.6947,28.084,28.6,1
7255960,-0.366,-0.366,0.000,0.3735,-0.3220,9.7067,28.107,28.6,1
7265973,-0.427,-0.427,-0.061,0.3813,-0.3154,9.7079,28.053,28.6,1
7275975,-0.305,-0.427,-0.061,0.4016,-0.3196,9.7103,28.057,28.6,1
7285982,-0.366,-0.427,-0.061,0.4034,-0.3280,9.7420,28.080,28.6,1
7295982,-0.305,-0.366,0.000,0.3873,-0.3184,9.7145,28.043,28.6,1
7305990,-0.366,-0.366,0.061,0.4010,-0.3184,9.7223,28.084,28.6,1
7315997,-0.305,-0.427,0.061,0.3944,-0.3478,9.7217,28.068,28.6,1
7326006,-0.366,-0.427,-0.122,0.3915,-0.3178,9.7300,28.084,28.6,1
7336006,-0.305,-0.366,-0.061,0.3795,-0.3232,9.7175,28.070,28.6,1
7346010,-0.305,-0.366,0.000,0.4016,-0.3244,9.7115,28.090,28.6,1
7356026,-0.366,-0.366,-0.061,0.3891,-0.3460,9.6989,28.072,28.6,1
7366030,-0.305,-0.427,-0.183,0.3968,-0.3208,9.7031,28.107,28.6,1
7376039,-0.427,-0.366,-0.122,0.4004,-0.3208,9.6989,28.107,28.6,1
7386049,-0.427,-0.427,0.000,0.3867,-0.3172,9.7067,28.076,28.6,1
7396057,-0.366,-0.366,0.000,0.3807,-0.2945,9.7085,28.084,28.6,1
7406057,-0.366,-0.366,0.000,0.4040,-0.2975,9.7169,28.088,28.6,1
7416057,-0.366,-0.427,0.000,0.3944,-0.2981,9.7115,28.105,28.6,1
7426057,-0.366,-0.427,0.000,0.3891,-0.3071,9.7217,28.082,28.6,1
7436060,-0.366,-0.427,-0.061,0.4016,-0.3142,9.7145,28.082,28.6,1
7446070,-0.305,-0.366,-0.061,0.3974,-0.3172,9.7019,28.070,28.6,1
7456070,-0.366,-0.427,-0.061,0.3873,-0.3460,9.7055,28.107,28.6,1
7466072,-0.305,-0.427,-0.122,0.3986,-0.3334,9.6941,28.125,28.6,1
7476080,-0.366,-0.366,-0.061,0.4004,-0.3172,9.7181,28.105,28.6,1
7486085,-0.244,-0.305,-0.061,0.3915,-0.3286,9.7001,28.078,28.6,1
7496085,-0.366,-0.427,-0.122,0.3765,-0.3178,9.7121,28.084,28.6,1
7506087,-0.427,-0.427,-0.061,0.4028,-0.3250,9.7366,28.082,28.6,1
7516100,-0.366,-0.366,0.000,0.3795,-0.3322,9.7187,28.115,28.6,1
7526102,-0.427,-0.366,-0.061,0.3891,-0.3274,9.7085,28.084,28.6,1
7536102,-0.427,-0.427,-0.061,0.4004,-0.3370,9.7151,28.119,28.6,1
7546105,-0.427,-0.366,-0.061,0.3998,-0.3214,9.7217,28.119,28.6,1
7556105,-0.366,-0.305,-0.061,0.3915,-0.3047,9.7276,28.100,28.6,1
7566115,-0.305,-0.305,-0.061,0.4034,-0.3220,9.7420,28.105,28.6,1
7576115,-0.305,-0.427,-0.061,0.3753,-0.3238,9.7043,28.066,28.6,1
7586121,-0.366,-0.366,-0.122,0.3855,-0.3370,9.7133,28.086,28.6,1
7596136,-0.305,-0.366,0.000,0.3944,-0.3184,9.7241,28.143,28.6,1
7606140,-0.305,-0.427,0.000,0.3956,-0.3178,9.7282,28.070,28.6,1
7616151,-0.427,-0.488,-0.061,0.3801,-0.3208,9.7157,28.033,28.6,1
7626156,-0.366,-0.366,0.000,0.4022,-0.3208,9.7169,28.113,28.6,1
7636161,-0.427,-0.427,-0.061,0.4022,-0.3316,9.7061,28.088,28.6,1
7646167,-0.305,-0.427,-0.061,0.3825,-0.3466,9.7444,28.107,28.6,1
7656179,-0.366,-0.366,-0.061,0.4022,-0.3166,9.7354,28.117,28.6,1
7666182,-0.366,-0.427,-0.122,0.3897,-0.3154,9.7252,28.084,28.6,1
7676194,-0.305,-0.366,-0.122,0.3795,-0.3202,9.7055,28.068,28.6,1
7686207,-0.305,-0.366,-0.061,0.3819,-0.3106,9.7330,28.127,28.6,1
7696220,-0.305,-0.366,-0.061,0.3986,-0.3208,9.6971,28.084,28.6,1
7706223,-0.305,-0.366,-0.122,0.3729,-0.3256,9.7199,28.072,28.6,1
7716224,-0.366,-0.305,-0.122,0.3807,-0.3310,9.7264,28.107,28.6,1
7726224,-0.305,-0.427,-0.061,0.3849,-0.3262,9.6989,28.107,28.6,1
7736235,-0.366,-0.366,-0.061,0.3873,-0.3077,9.7007,28.107,28.6,1
7746247,-0.427,-0.305,-0.122,0.3926,-0.3089,9.7133,28.070,28.6,1
7756255,-0.366,-0.366,-0.061,0.3867,-0.3160,9.7282,28.107,28.6,1
7766255,-0.305,-0.427,-0.061,0.3968,-0.3244,9.7109,28.076,28.6,1
7776258,-0.366,-0.427,-0.061,0.3974,-0.3106,9.6917,28.096,28.6,1
7786270,-0.427,-0.366,-0.061,0.3819,-0.3124,9.6899,28.121,28.6,1
7796273,-0.305,-0.366,0.000,0.3825,-0.3106,9.7097,28.123,28.6,1
7806277,-0.305,-0.427,0.000,0.4058,-0.3256,9.7133,28.102,28.6,1
7816281,-0.366,-0.427,-0.122,0.4028,-0.3190,9.7145,28.113,28.6,1
7826289,-0.305,-0.366,-0.122,0.3897,-0.3196,9.7091,28.070,28.6,1
7836292,-0.305,-0.427,-0.061,0.3897,-0.3065,9.7336,28.125,28.6,1
7846304,-0.305,-0.366,-0.061,0.3903,-0.3035,9.7217,28.125,28.6,1
7856308,-0.427,-0.427,-0.061,0.3783,-0.3142,9.7438,28.080,28.6,1
7866315,-0.366,-0.427,0.000,0.3891,-0.3083,9.7169,28.111,28.6,1
7876319,-0.366,-0.305,-0.061,0.3831,-0.3220,9.7139,28.129,28.6,1
7886323,-0.305,-0.366,-0.122,0.3962,-0.3148,9.6971,28.084,28.6,1
7896334,-0.366,-0.366,0.000,0.3897,-0.3208,9.6995,28.064,28.6,1
7906346,-0.366,-0.427,0.000,0.3932,-0.3106,9.7199,28.064,28.6,1
7916346,-0.366,-0.427,-0.061,0.3783,-0.3136,9.7049,28.113,28.6,1
7926346,-0.366,-0.366,-0.061,0.3879,-0.2993,9.7115,28.080,28.6,1
7936359,-0.366,-0.366,-0.061,0.3765,-0.3124,9.7001,28.064,28.6,1
7946369,-0.488,-0.427,-0.122,0.3753,-0.3298,9.7163,28.072,28.6,1
7956376,-0.427,-0.427,0.000,0.3741,-0.3262,9.6816,28.080,28.6,1
7966380,-0.366,-0.366,-0.061,0.3926,-0.3095,9.6983,28.105,28.6,1
7976392,-0.366,-0.366,-0.122,0.3950,-0.3148,9.7157,28.090,28.6,1
7986392,-0.305,-0.366,-0.122,0.3926,-0.2969,9.7193,28.084,28.6,1
7996392,-0.305,-0.305,0.000,0.3825,-0.3106,9.7258,28.133,28.6,1
8006395,-0.427,-0.366,-0.061,0.3861,-0.3208,9.7139,28.115,28.6,1
8016399,-0.366,-0.366,-0.061,0.3986,-0.3106,9.7097,28.105,28.6,1
8026411,-0.366,-0.366,-0.061,0.3879,-0.3334,9.6881,28.074,28.6,1
8036426,-0.366,-0.305,-0.061,0.3765,-0.3298,9.7091,28.094,28.6,1
8046429,-0.305,-0.366,0.000,0.3921,-0.3232,9.7037,28.076,28.6,1
8056430,-0.366,-0.366,-0.061,0.4100,-0.3202,9.7079,28.096,28.6,1
8066437,-0.305,-0.366,0.000,0.3938,-0.3334,9.7205,28.096,28.6,1
8076441,-0.366,-0.427,-0.061,0.3932,-0.3214,9.7115,28.088,28.6,1
8086450,-0.305,-0.427,-0.061,0.3956,-0.3023,9.6953,28.088,28.6,1
8096460,-0.305,-0.427,0.000,0.3879,-0.3214,9.7169,28.125,28.6,1
8106460,-0.427,-0.427,0.000,0.3789,-0.3238,9.7252,28.088,28.6,1
8116460,-0.305,-0.427,0.000,0.3873,-0.3178,9.7306,28.102,28.6,1
8126468,-0.305,-0.427,0.000,0.3855,-0.3089,9.6893,28.105,28.6,1
8136468,-0.366,-0.427,0.000,0.3968,-0.2963,9.7115,28.104,28.6,1
8146481,-0.427,-0.427,-0.122,0.3831,-0.3142,9.6786,28.127,28.6,1
8156481,-0.366,-0.305,-0.061,0.3974,-0.3071,9.6977,28.094,28.6,1
8166491,-0.427,-0.366,-0.122,0.3944,-0.3011,9.7061,28.059,28.6,1
8176491,-0.305,-0.427,-0.061,0.3861,-0.3100,9.6947,28.070,28.6,1
8186491,-0.305,-0.427,-0.122,0.4052,-0.3364,9.7007,28.051,28.6,1
8196502,-0.305,-0.427,-0.122,0.4070,-0.3220,9.7067,28.127,28.6,1
8206502,-0.305,-0.366,-0.122,0.4040,-0.3118,9.7181,28.123,28.6,1
8216518,-0.305,-0.305,0.000,0.4028,-0.3160,9.7175,28.100,28.6,1
8226529,-0.305,-0.305,-0.061,0.3944,-0.3077,9.7229,28.102,28.6,1
8236534,-0.305,-0.366,-0.122,0.3932,-0.3053,9.6953,28.107,28.6,1
8246534,-0.305,-0.366,-0.061,0.3711,-0.3017,9.7049,28.100,28.6,1
8256546,-0.366,-0.427,-0.122,0.3903,-0.3059,9.7127,28.100,28.6,1
8266552,-0.244,-0.366,-0.061,0.3843,-0.3130,9.6983,28.074,28.6,1
8276556,-0.305,-0.366,-0.061,0.3885,-0.2963,9.7073,28.117,28.6,1
8286564,-0.366,-0.366,0.000,0.3944,-0.3065,9.7211,28.080,28.6,1
8296564,-0.305,-0.366,0.000,0.3926,-0.3214,9.7073,28.070,28.6,1
8306567,-0.305,-0.366,-0.183,0.3849,-0.3172,9.7133,28.121,28.6,1
8316569,-0.366,-0.366,-0.122,0.3855,-0.3059,9.7151,28.098,28.6,1
8326579,-0.366,-0.366,-0.061,0.3879,-0.3100,9.7091,28.111,28.6,1
8336592,-0.366,-0.427,-0.061,0.3831,-0.3130,9.7157,28.135,28.6,1
8346599,-0.366,-0.427,-0.061,0.3795,-0.3089,9.6899,28.098,28.6,1
8356613,-0.366,-0.427,-0.061,0.3765,-0.3077,9.6965,28.090,28.6,1
8366622,-0.305,-0.427,-0.061,0.3819,-0.3118,9.7235,28.072,28.6,1
8376632,-0.366,-0.366,-0.061,0.3723,-0.3190,9.7109,28.117,28.6,1
8386640,-0.366,-0.366,-0.061,0.3705,-0.3238,9.7205,28.086,28.6,1
8396653,-0.366,-0.366,-0.061,0.3921,-0.3322,9.7252,28.107,28.6,1
8406653,-0.366,-0.366,-0.061,0.3759,-0.3172,9.7037,28.123,28.6,1
8416654,-0.366,-0.427,-0.061,0.3879,-0.3059,9.6905,28.121,28.6,1
8426656,-0.366,-0.549,-0.061,0.3855,-0.3077,9.7127,28.092,28.6,1
8436660,-0.305,-0.427,-0.061,0.3783,-0.3256,9.7103,28.092,28.6,1
8446674,-0.305,-0.305,-0.061,0.3849,-0.3041,9.6977,28.121,28.6,1
8456678,-0.244,-0.366,-0.061,0.3879,-0.3029,9.7300,28.086,28.6,1
8466681,-0.305,-0.366,0.000,0.3980,-0.3160,9.7193,28.096,28.6,1
8476689,-0.305,-0.427,-0.061,0.3992,-0.3340,9.7097,28.068,28.6,1
8486701,-0.366,-0.305,0.000,0.3980,-0.3256,9.7145,28.102,28.6,1
8496701,-0.366,-0.366,-0.061,0.3711,-0.3220,9.7067,28.117,28.6,1
8506701,-0.366,-0.366,-0.122,0.3921,-0.3316,9.7025,28.111,28.6,1
8516704,-0.366,-0.244,-0.122,0.3986,-0.3310,9.7073,28.064,28.6,1
8526708,-0.305,-0.305,-0.122,0.3783,-0.3154,9.6917,28.084,28.6,1
8536708,-0.366,-0.427,0.000,0.4004,-0.3089,9.6827,28.059,28.6,1
8546714,-0.244,-0.427,-0.061,0.3915,-0.3047,9.6953,28.076,28.6,1
8556716,-0.305,-0.427,-0.061,0.3909,-0.3262,9.6941,28.076,28.6,1
8566729,-0.366,-0.427,-0.061,0.3956,-0.3202,9.7336,28.102,28.6,1
8576732,-0.427,-0.305,0.000,0.3992,-0.3071,9.7187,28.102,28.6,1
8586747,-0.366,-0.305,0.000,0.3615,-0.2975,9.7115,28.080,28.6,1
8596750,-0.305,-0.366,-0.061,0.3609,-0.3100,9.7276,28.068,28.6,1
8606750,-0.366,-0.427,-0.061,0.3825,-0.3244,9.7276,28.131,28.6,1
8616750,-0.427,-0.427,-0.183,0.3926,-0.3256,9.7151,28.131,28.6,1
8626760,-0.366,-0.366,-0.061,0.3885,-0.3214,9.7151,28.117,28.6,1
8636766,-0.366,-0.305,-0.061,0.4112,-0.3172,9.7211,28.080,28.6,1
8646766,-0.366,-0.305,-0.122,0.4136,-0.2957,9.6971,28.092,28.6,1
8656766,-0.305,-0.427,-0.122,0.3998,-0.3089,9.6917,28.080,28.6,1
8666777,-0.244,-0.366,-0.122,0.3998,-0.3172,9.7055,28.068,28.6,1
8676781,-0.427,-0.427,-0.061,0.3735,-0.3077,9.7217,28.141,28.6,1
8686784,-0.366,-0.488,0.000,0.3921,-0.3220,9.7091,28.086,28.6,1
8696787,-0.305,-0.427,0.000,0.4010,-0.3130,9.6923,28.105,28.6,1
8706796,-0.366,-0.427,-0.061,0.3777,-0.3226,9.7061,28.064,28.6,1
8716808,-0.366,-0.427,-0.061,0.4010,-0.3238,9.7217,28.076,28.6,1
8726812,-0.305,-0.305,-0.122,0.4004,-0.3244,9.7043,28.113,28.6,1
8736826,-0.305,-0.305,0.000,0.4070,-0.3394,9.7270,28.113,28.6,1
8746838,-0.305,-0.427,-0.061,0.3992,-0.3100,9.7223,28.098,28.6,1
8756840,-0.366,-0.305,-0.061,0.4040,-0.3244,9.7115,28.102,28.6,1
8766842,-0.366,-0.427,-0.061,0.3932,-0.3388,9.7193,28.102,28.6,1
8776856,-0.305,-0.366,-0.061,0.3879,-0.3322,9.7426,28.057,28.6,1
8786867,-0.366,-0.366,-0.061,0.4058,-0.3280,9.7103,28.139,28.6,1
8796881,-0.305,-0.366,-0.122,0.3867,-0.3256,9.7139,28.139,28.6,1
8806891,-0.366,-0.427,-0.122,0.3825,-0.3208,9.7235,28.082,28.6,1
8816891,-0.244,-0.366,-0.061,0.3950,-0.3340,9.7246,28.141,28.6,1
8826891,-0.244,-0.366,0.000,0.3950,-0.3250,9.7049,28.064,28.6,1
8836903,-0.366,-0.366,-0.061,0.3801,-0.3268,9.7067,28.141,28.6,1
8846906,-0.305,-0.427,-0.061,0.3897,-0.3274,9.7043,28.080,28.6,1
8856919,-0.366,-0.366,0.000,0.3909,-0.3178,9.7336,28.068,28.6,1
8866929,-0.366,-0.305,0.000,0.3843,-0.3124,9.7235,28.080,28.6,1
8876942,-0.244,-0.366,-0.061,0.3783,-0.3436,9.6792,28.066,28.6,1
8886945,-0.366,-0.366,-0.061,0.3837,-0.3220,9.7384,28.076,28.6,1
8896948,-0.366,-0.366,-0.122,0.3651,-0.3256,9.7175,28.111,28.6,1
8906962,-0.305,-0.427,0.000,0.3849,-0.3142,9.7121,28.102,28.6,1
8916966,-0.305,-0.427,0.000,0.3783,-0.3112,9.7055,28.113,28.6,1
8926975,-0.366,-0.305,-0.061,0.3783,-0.3238,9.7115,28.092,28.6,1
8936988,-0.366,-0.305,0.000,0.3921,-0.3208,9.7384,28.109,28.6,1
8946990,-0.366,-0.427,-0.061,0.4094,-0.3292,9.7025,28.148,28.6,1
8956997,-0.366,-0.427,-0.122,0.3849,-0.3238,9.7037,28.094,28.6,1
8967006,-0.305,-0.366,-0.061,0.3974,-0.3214,9.6881,28.094,28.6,1
8977013,-0.305,-0.366,-0.061,0.3903,-0.3328,9.6857,28.098,28.6,1
8987025,-0.366,-0.366,-0.122,0.3873,-0.3190,9.7031,28.074,28.6,1
8997039,-0.305,-0.366,-0.122,0.3777,-0.3316,9.6911,28.076,28.6,1
9007048,-0.305,-0.366,0.000,0.3855,-0.3112,9.6869,28.107,28.6,1
9017060,-0.366,-0.366,-0.061,0.4172,-0.3196,9.7235,28.064,28.6,1
9027061,-0.366,-0.427,-0.122,0.3843,-0.3160,9.7378,28.100,28.6,1
9037070,-0.427,-0.427,-0.061,0.3837,-0.3202,9.6959,28.098,28.6,1
9047070,-0.366,-0.366,-0.061,0.4004,-0.3238,9.7103,28.090,28.6,1
9057083,-0.366,-0.305,0.000,0.4112,-0.3358,9.7001,28.084,28.6,1
9067095,-0.244,-0.366,-0.061,0.3783,-0.3244,9.7276,28.141,28.6,1
9077100,-0.366,-0.366,-0.061,0.3932,-0.3005,9.7217,28.053,28.6,1
9087102,-0.366,-0.305,-0.061,0.3921,-0.3166,9.7025,28.107,28.6,1
9097115,-0.366,-0.366,-0.122,0.3759,-0.3112,9.6732,28.051,28.6,1
9107125,-0.366,-0.427,-0.061,0.3843,-0.3071,9.7055,28.086,28.6,1
9117125,-0.366,-0.488,-0.061,0.3879,-0.3292,9.7223,28.070,28.6,1
9127125,-0.305,-0.366,-0.061,0.4028,-0.3118,9.6911,28.086,28.6,1
9137131,-0.305,-0.366,-0.122,0.3867,-0.3077,9.7031,28.088,28.6,1
9147133,-0.305,-0.427,-0.122,0.3759,-0.3100,9.7282,28.088,28.6,1
9157136,-0.366,-0.427,-0.061,0.3998,-0.3190,9.7031,28.086,28.6,1
9167148,-0.427,-0.427,-0.122,0.3711,-0.3071,9.7055,28.107,28.6,1
9177152,-0.427,-0.427,0.000,0.3998,-0.3130,9.6971,28.123,28.6,1
9187163,-0.305,-0.427,-0.122,0.3926,-0.3274,9.6989,28.078,28.6,1
9197163,-0.305,-0.488,-0.061,0.3956,-0.3226,9.7025,28.107,28.6,1
9207163,-0.366,-0.366,-0.122,0.3843,-0.3274,9.7151,28.057,28.6,1
9217167,-0.305,-0.366,0.000,0.4094,-0.3256,9.6971,28.090,28.6,1
9227167,-0.366,-0.366,-0.122,0.3741,-0.3083,9.6995,28.061,28.6,1
9237179,-0.366,-0.427,-0.061,0.3885,-0.3095,9.7115,28.109,28.6,1
9247192,-0.305,-0.305,0.000,0.3897,-0.3268,9.7031,28.111,28.6,1
9257197,-0.366,-0.366,-0.061,0.3968,-0.3286,9.7157,28.098,28.6,1
9267207,-0.305,-0.427,0.000,0.4010,-0.3286,9.7049,28.102,28.6,1
9277213,-0.366,-0.366,0.000,0.4010,-0.3256,9.6953,28.078,28.6,1
9287224,-0.305,-0.305,-0.061,0.3735,-0.3106,9.7145,28.141,28.6,1
9297237,-0.305,-0.427,-0.122,0.3903,-0.3220,9.7109,28.129,28.6,1
9307237,-0.366,-0.366,-0.061,0.3956,-0.3280,9.7067,28.102,28.6,1
9317247,-0.305,-0.366,0.000,0.3903,-0.3160,9.7193,28.100,28.6,1
9327255,-0.244,-0.366,-0.061,0.3807,-0.3178,9.7109,28.100,28.6,1
9337258,-0.305,-0.427,-0.061,0.3867,-0.3286,9.7013,28.125,28.6,1
9347270,-0.427,-0.366,-0.061,0.3980,-0.3262,9.7127,28.084,28.6,1
9357272,-0.366,-0.366,-0.061,0.4010,-0.3358,9.7264,28.076,28.6,1
9367283,-0.305,-0.366,0.000,0.3861,-0.3340,9.7025,28.115,28.6,1
9377290,-0.366,-0.305,-0.061,0.3711,-0.3136,9.6851,28.080,28.6,1
9387304,-0.366,-0.366,-0.061,0.3771,-0.3322,9.6959,28.123,28.6,1
9397313,-0.305,-0.427,-0.061,0.3783,-0.3250,9.7276,28.076,28.6,1
9407326,-0.305,-0.366,-0.122,0.4022,-0.3130,9.7079,28.107,28.6,1
9417331,-0.366,-0.366,-0.061,0.4076,-0.3304,9.7091,28.070,28.6,1
9427338,-0.427,-0.427,-0.061,0.3915,-0.3394,9.7229,28.082,28.6,1
9437346,-0.366,-0.305,-0.061,0.3843,-0.3071,9.7229,28.125,28.6,1
9447349,-0.244,-0.366,-0.061,0.3885,-0.2927,9.6953,28.121,28.6,1
9457361,-0.244,-0.366,-0.061,0.3956,-0.3083,9.7103,28.094,28.6,1
9467361,-0.427,-0.427,0.000,0.3962,-0.3154,9.7109,28.049,28.6,1
9477372,-0.366,-0.427,0.000,0.3903,-0.3244,9.6935,28.143,28.6,1
9487380,-0.305,-0.305,-0.061,0.3849,-0.3322,9.7079,28.084,28.6,1
9497384,-0.366,-0.366,0.000,0.3873,-0.3023,9.7169,28.088,28.6,1
9507389,-0.366,-0.366,0.000,0.3938,-0.3166,9.7229,28.088,28.6,1
9517392,-0.366,-0.427,-0.061,0.4040,-0.3136,9.7091,28.107,28.6,1
9527392,-0.305,-0.366,-0.122,0.3950,-0.3059,9.7229,28.068,28.6,1
9537405,-0.305,-0.366,0.000,0.4022,-0.3262,9.7294,28.100,28.6,1
9547407,-0.366,-0.366,-0.061,0.3855,-0.3274,9.7109,28.090,28.6,1
9557412,-0.366,-0.366,-0.061,0.4052,-0.3364,9.7037,28.086,28.6,1
9567413,-0.366,-0.366,-0.061,0.3909,-0.3220,9.6953,28.076,28.6,1
9577426,-0.305,-0.427,0.000,0.4010,-0.3250,9.7115,28.109,28.6,1
9587430,-0.366,-0.427,-0.061,0.3926,-0.3184,9.7055,28.111,28.6,1
9597435,-0.366,-0.366,0.000,0.4016,-0.3124,9.7031,28.059,28.6,1
9607440,-0.366,-0.366,-0.061,0.3950,-0.3208,9.7127,28.088,28.6,1
9617445,-0.427,-0.366,-0.061,0.3765,-0.3142,9.7079,28.080,28.6,1
9627445,-0.427,-0.427,-0.061,0.4058,-0.3047,9.7031,28.096,28.6,1
9637445,-0.427,-0.305,-0.061,0.3801,-0.2855,9.6917,28.104,28.6,1
9647445,-0.305,-0.366,-0.122,0.3759,-0.3029,9.7073,28.096,28.6,1
9657456,-0.305,-0.366,-0.122,0.3849,-0.3304,9.7121,28.098,28.6,1
9667457,-0.305,-0.366,-0.061,0.3950,-0.3077,9.7223,28.105,28.6,1
9677468,-0.427,-0.366,-0.122,0.3849,-0.3041,9.7097,28.105,28.6,1
9687468,-0.366,-0.366,-0.061,0.3974,-0.3292,9.7348,28.076,28.6,1
9697475,-0.366,-0.366,-0.061,0.3974,-0.3250,9.6983,28.105,28.6,1
9707487,-0.305,-0.366,-0.061,0.3891,-0.3130,9.7133,28.055,28.6,1
9717497,-0.244,-0.427,-0.061,0.3807,-0.3172,9.7246,28.109,28.6,1
9727511,-0.427,-0.427,-0.061,0.3903,-0.3160,9.6971,28.123,28.6,1
9737522,-0.366,-0.305,0.000,0.3885,-0.3190,9.6989,28.090,28.6,1
9747523,-0.305,-0.366,0.000,0.3861,-0.3130,9.7288,28.078,28.6,1
9757537,-0.305,-0.427,-0.061,0.3944,-0.3166,9.7157,28.131,28.6,1
9767549,-0.427,-0.427,-0.061,0.3956,-0.3280,9.7103,28.053,28.6,1
9777552,-0.366,-0.366,-0.061,0.3944,-0.3106,9.7097,28.076,28.6,1
9787562,-0.305,-0.366,-0.122,0.3873,-0.3112,9.6977,28.064,28.6,1
9797564,-0.366,-0.305,-0.061,0.4010,-0.3184,9.6959,28.076,28.6,1
9807577,-0.305,-0.366,0.000,0.3909,-0.3130,9.7199,28.115,28.6,1
9817586,-0.427,-0.366,-0.061,0.3885,-0.3292,9.7121,28.123,28.6,1
9827597,-0.366,-0.427,-0.122,0.3801,-0.3280,9.6929,28.055,28.6,1
9837610,-0.366,-0.427,-0.183,0.3783,-0.3304,9.7163,28.111,28.6,1
9847617,-0.244,-0.366,-0.061,0.3849,-0.3226,9.7013,28.092,28.6,1
9857629,-0.366,-0.427,-0.061,0.3873,-0.3077,9.7151,28.092,28.6,1
9867629,-0.305,-0.427,-0.061,0.3962,-0.3005,9.7181,28.104,28.6,1
9877629,-0.244,-0.366,-0.122,0.3992,-0.3095,9.7013,28.098,28.6,1
9887638,-0.305,-0.366,-0.061,0.4256,-0.3238,9.7097,28.111,28.6,1
9897647,-0.305,-0.366,0.000,0.3938,-0.3011,9.7103,28.066,28.6,1
9907659,-0.244,-0.427,0.000,0.3986,-0.3184,9.7402,28.070,28.6,1
9917667,-0.366,-0.427,-0.122,0.3717,-0.3196,9.7025,28.119,28.6,1
9927678,-0.305,-0.366,0.000,0.3771,-0.3286,9.7246,28.111,28.6,1
9937678,-0.244,-0.366,-0.122,0.3992,-0.3232,9.7217,28.088,28.6,1
9947689,-0.305,-0.427,-0.061,0.3837,-0.3220,9.6977,28.107,28.6,1
9957693,-0.305,-0.366,0.000,0.3723,-0.3208,9.7013,28.074,28.6,1
9967705,-0.366,-0.305,0.000,0.3729,-0.3286,9.7091,28.047,28.6,1
9977716,-0.366,-0.366,-0.122,0.3753,-0.2963,9.6959,28.104,28.6,1
9987729,-0.366,-0.366,-0.061,0.3753,-0.3226,9.6857,28.145,28.6,1
9997731,-0.305,-0.427,0.000,0.4016,-0.3238,9.6953,28.059,28.6,1
10007739,-0.305,-0.366,-0.122,0.3968,-0.3226,9.6971,28.098,28.6,1
10017744,-0.305,-0.366,-0.122,0.3962,-0.3112,9.7193,28.078,28.6,1
10027754,-0.427,-0.366,-0.061,0.4094,-0.3130,9.7193,28.109,28.6,1
10037766,-0.244,-0.366,0.000,0.4130,-0.3142,9.7097,28.109,28.6,1
10047766,-0.366,-0.427,0.000,0.3777,-0.3130,9.7366,28.107,28.6,1
10057769,-0.427,-0.366,-0.061,0.3891,-0.3089,9.7276,28.092,28.6,1
10067784,-0.427,-0.366,-0.061,0.3974,-0.3100,9.7258,28.092,28.6,1
10077788,-0.427,-0.366,-0.061,0.4040,-0.3208,9.7354,28.127,28.6,1
10087800,-0.305,-0.366,-0.061,0.3944,-0.3130,9.7217,28.107,28.6,1
10097800,-0.427,-0.427,0.000,0.3938,-0.3071,9.7157,28.102,28.6,1
10107808,-0.305,-0.366,-0.061,0.3723,-0.3262,9.7402,28.113,28.6,1
10117815,-0.305,-0.366,-0.061,0.3801,-0.3334,9.7181,28.100,28.6,1
10127815,-0.366,-0.366,-0.061,0.3897,-0.3232,9.7073,28.086,28.6,1
10137820,-0.305,-0.366,-0.061,0.3777,-0.3083,9.7019,28.084,28.6,1
10147833,-0.305,-0.427,0.000,0.3891,-0.3202,9.7121,28.125,28.6,1
10157842,-0.305,-0.366,-0.122,0.3992,-0.3208,9.6893,28.092,28.6,1
10167851,-0.427,-0.366,-0.061,0.3879,-0.3130,9.7318,28.105,28.6,1
10177856,-0.366,-0.427,-0.061,0.3938,-0.3124,9.7055,28.070,28.6,1
10187869,-0.244,-0.305,0.000,0.3956,-0.3214,9.7067,28.121,28.6,1
10197869,-0.305,-0.427,-0.061,0.3980,-0.3112,9.7031,28.039,28.6,1
10207869,-0.305,-0.427,0.000,0.3843,-0.3316,9.7049,28.059,28.6,1
10217882,-0.366,-0.427,0.000,0.3915,-0.3226,9.7276,28.059,28.6,1
10227891,-0.366,-0.427,-0.061,0.3926,-0.2981,9.7013,28.150,28.6,1
10237891,-0.305,-0.427,-0.061,0.4064,-0.2945,9.7043,28.100,28.6,1
10247903,-0.305,-0.427,-0.122,0.4016,-0.3340,9.6923,28.104,28.6,1
10257914,-0.305,-0.427,-0.122,0.3819,-0.3196,9.7037,28.131,28.6,1
10267914,-0.305,-0.427,-0.061,0.3915,-0.3238,9.7127,28.100,28.6,1
10277914,-0.305,-0.305,-0.122,0.3926,-0.3100,9.7270,28.061,28.6,1
10287921,-0.366,-0.366,-0.122,0.3855,-0.3011,9.6893,28.115,28.6,1
10297933,-0.366,-0.427,-0.122,0.3795,-0.3190,9.6893,28.150,28.6,1
10307945,-0.366,-0.366,-0.061,0.3825,-0.3100,9.7276,28.107,28.6,1
10317958,-0.366,-0.366,0.000,0.4136,-0.3148,9.6995,28.104,28.6,1
10327963,-0.366,-0.305,0.000,0.4070,-0.3041,9.7145,28.107,28.6,1
10337973,-0.366,-0.366,-0.061,0.4004,-0.2999,9.7193,28.068,28.6,1
10347973,-0.244,-0.488,-0.061,0.3980,-0.3130,9.6833,28.072,28.6,1
10357975,-0.244,-0.366,0.000,0.3771,-0.3077,9.7121,28.105,28.6,1
10367979,-0.244,-0.366,-0.061,0.3843,-0.3047,9.7109,28.084,28.6,1
10377990,-0.427,-0.427,0.000,0.4040,-0.3196,9.7025,28.057,28.6,1
10387994,-0.366,-0.427,-0.122,0.3909,-0.3148,9.6905,28.057,28.6,1
10397997,-0.366,-0.366,0.000,0.4010,-0.3214,9.6929,28.131,28.6,1
10408006,-0.305,-0.366,-0.061,0.4166,-0.3089,9.7025,28.104,28.6,1
10418016,-0.305,-0.427,-0.122,0.3962,-0.3262,9.6983,28.121,28.6,1
10428030,-0.366,-0.427,-0.122,0.3992,-0.3059,9.7049,28.094,28.6,1
10438034,-0.366,-0.427,-0.122,0.3855,-0.3095,9.7145,28.107,28.6,1
10448034,-0.305,-0.366,-0.061,0.3879,-0.3406,9.7097,28.090,28.6,1
10458046,-0.244,-0.305,0.000,0.3843,-0.3268,9.7121,28.096,28.6,1
10468057,-0.244,-0.427,0.000,0.3879,-0.2987,9.7049,28.076,28.6,1
10478070,-0.244,-0.427,-0.061,0.3962,-0.3136,9.7211,28.092,28.6,1
10488072,-0.366,-0.427,-0.061,0.3849,-0.3274,9.7091,28.119,28.6,1
10498085,-0.305,-0.427,-0.061,0.3897,-0.3112,9.7103,28.139,28.6,1
10508091,-0.366,-0.366,-0.061,0.3903,-0.3148,9.7205,28.123,28.6,1
10518102,-0.488,-0.427,-0.061,0.3777,-0.3196,9.7067,28.107,28.6,1
10528105,-0.366,-0.427,-0.122,0.4082,-0.3202,9.7199,28.121,28.6,1
10538115,-0.366,-0.427,-0.061,0.4022,-0.3190,9.7139,28.104,28.6,1
10548121,-0.366,-0.366,0.061,0.3950,-0.3382,9.7055,28.139,28.6,1
10558133,-0.305,-0.366,-0.061,0.3897,-0.3136,9.7043,28.107,28.6,1
10568133,-0.305,-0.366,-0.061,0.3771,-0.3196,9.7079,28.107,28.6,1
10578133,-0.366,-0.366,-0.061,0.4076,-0.3220,9.6989,28.078,28.6,1
10588146,-0.305,-0.366,-0.061,0.3992,-0.3250,9.7175,28.088,28.6,1
10598148,-0.305,-0.366,-0.122,0.4148,-0.3089,9.7181,28.098,28.6,1
10608151,-0.366,-0.366,-0.122,0.3825,-0.3089,9.7037,28.115,28.6,1
10618165,-0.305,-0.366,-0.061,0.3843,-0.3154,9.7151,28.057,28.6,1
10628179,-0.366,-0.427,0.000,0.3926,-0.3130,9.7043,28.115,28.6,1
10638182,-0.305,-0.366,0.000,0.3903,-0.3100,9.7252,28.107,28.6,1
10648191,-0.305,-0.366,0.000,0.4016,-0.3238,9.7258,28.127,28.6,1
10658194,-0.305,-0.366,0.000,0.4004,-0.3286,9.7252,28.086,28.6,1
10668194,-0.427,-0.244,-0.061,0.3944,-0.3334,9.7055,28.129,28.6,1
10678201,-0.366,-0.305,-0.061,0.3903,-0.3304,9.6923,28.123,28.6,1
10688207,-0.366,-0.366,-0.061,0.3897,-0.3238,9.7097,28.082,28.6,1
10698207,-0.366,-0.305,-0.061,0.3891,-0.3220,9.6941,28.123,28.6,1
10708212,-0.305,-0.366,-0.061,0.3855,-0.3214,9.7013,28.080,28.6,1
10718224,-0.305,-0.366,-0.122,0.3950,-0.3095,9.7115,28.139,28.6,1
10728232,-0.366,-0.366,-0.061,0.3944,-0.3262,9.7151,28.092,28.6,1
10738243,-0.488,-0.427,-0.122,0.3627,-0.3322,9.7079,28.080,28.6,1
10748255,-0.366,-0.427,-0.061,0.3669,-0.3124,9.7133,28.080,28.6,1
10758268,-0.244,-0.366,-0.061,0.3789,-0.3178,9.7169,28.094,28.6,1
10768270,-0.366,-0.305,-0.122,0.3861,-0.3232,9.6875,28.113,28.6,1
10778270,-0.427,-0.366,-0.122,0.3956,-0.3292,9.7073,28.117,28.6,1
10788270,-0.366,-0.366,-0.061,0.3813,-0.3250,9.7139,28.123,28.6,1
10798270,-0.305,-0.305,0.000,0.4004,-0.3280,9.7229,28.076,28.6,1
10808273,-0.427,-0.366,-0.061,0.4010,-0.3256,9.7067,28.082,28.6,1
10818285,-0.366,-0.305,-0.122,0.3950,-0.3364,9.6965,28.125,28.6,1
10828293,-0.366,-0.366,-0.122,0.3789,-0.3292,9.7049,28.117,28.6,1
10838293,-0.366,-0.427,-0.061,0.3932,-0.3106,9.6995,28.105,28.6,1
10848300,-0.366,-0.366,-0.061,0.4010,-0.3160,9.7067,28.076,28.6,1
10858303,-0.427,-0.366,-0.122,0.3807,-0.3310,9.7007,28.092,28.6,1
10868304,-0.366,-0.366,-0.122,0.3777,-0.3202,9.7139,28.094,28.6,1
10878313,-0.427,-0.366,0.000,0.3855,-0.3065,9.7193,28.090,28.6,1
10888316,-0.366,-0.366,-0.061,0.3801,-0.3184,9.7270,28.082,28.6,1
10898316,-0.366,-0.427,0.000,0.3885,-0.3220,9.6983,28.076,28.6,1
10908317,-0.305,-0.366,0.000,0.3729,-0.3136,9.6941,28.072,28.6,1
10918326,-0.427,-0.305,-0.061,0.3807,-0.3220,9.7097,28.070,28.6,1
10928329,-0.488,-0.305,-0.122,0.3855,-0.3112,9.7229,28.070,28.6,1
10938342,-0.366,-0.305,0.000,0.3777,-0.3190,9.7127,28.117,28.6,1
10948350,-0.366,-0.366,0.000,0.3956,-0.3053,9.6833,28.096,28.6,1
10958350,-0.366,-0.305,-0.183,0.3759,-0.3011,9.7097,28.141,28.6,1
10968354,-0.305,-0.366,-0.122,0.3777,-0.3100,9.7121,28.094,28.6,1
10978361,-0.366,-0.366,0.000,0.3735,-0.3202,9.6959,28.109,28.6,1
10988374,-0.427,-0.366,-0.061,0.3915,-0.3047,9.6893,28.076,28.6,1
10998376,-0.366,-0.366,0.000,0.4046,-0.3053,9.7001,28.076,28.6,1
11008380,-0.305,-0.366,-0.122,0.3986,-0.2993,9.6947,28.037,28.6,1
11018384,-0.427,-0.427,-0.061,0.4106,-0.2957,9.7163,28.082,28.6,1
11028384,-0.427,-0.366,-0.061,0.3915,-0.3065,9.7121,28.084,28.6,1
11038387,-0.366,-0.305,-0.061,0.3813,-0.3118,9.6833,28.123,28.6,1
11048395,-0.305,-0.366,0.000,0.3938,-0.3095,9.7019,28.074,28.6,1
11058407,-0.305,-0.366,0.000,0.3891,-0.3011,9.6995,28.131,28.6,1
11068420,-0.305,-0.427,-0.061,0.3819,-0.3124,9.7163,28.119,28.6,1
11078422,-0.427,-0.366,0.000,0.3974,-0.3196,9.6929,28.100,28.6,1
11088422,-0.366,-0.427,-0.122,0.3849,-0.3154,9.7091,28.111,28.6,1
11098422,-0.366,-0.305,-0.061,0.3777,-0.3118,9.7031,28.111,28.6,1
11108426,-0.427,-0.366,-0.061,0.3873,-0.3184,9.7276,28.107,28.6,1
11118426,-0.366,-0.427,0.000,0.3831,-0.3184,9.7474,28.102,28.6,1
11128430,-0.366,-0.366,-0.061,0.3998,-0.3208,9.7097,28.088,28.6,1
11138430,-0.366,-0.427,0.000,0.4160,-0.3077,9.7049,28.102,28.6,1
11148435,-0.305,-0.366,0.000,0.4028,-0.3136,9.7199,28.102,28.6,1
11158441,-0.305,-0.366,-0.061,0.3956,-0.3298,9.7306,28.070,28.6,1
11168456,-0.366,-0.305,-0.122,0.3825,-0.3196,9.7115,28.084,28.6,1
11178466,-0.366,-0.427,-0.183,0.3897,-0.3184,9.7169,28.160,28.6,1
11188468,-0.366,-0.366,0.000,0.3915,-0.3226,9.7079,28.109,28.6,1
11198471,-0.366,-0.305,-0.061,0.4070,-0.3286,9.7019,28.141,28.6,1
11208471,-0.305,-0.427,-0.183,0.3926,-0.2885,9.6977,28.076,28.6,1
11218471,-0.366,-0.427,-0.122,0.3831,-0.3083,9.7073,28.133,28.6,1
11228483,-0.305,-0.366,0.061,0.3819,-0.3238,9.6929,28.096,28.6,1
11238491,-0.305,-0.366,0.000,0.3885,-0.3112,9.7211,28.090,28.6,1
11248498,-0.427,-0.305,0.000,0.3801,-0.3154,9.6905,28.096,28.6,1
11258502,-0.366,-0.366,0.000,0.3962,-0.3250,9.6971,28.123,28.6,1
11268518,-0.366,-0.305,-0.061,0.3891,-0.3166,9.7121,28.105,28.6,1
11278523,-0.305,-0.366,-0.183,0.3944,-0.3059,9.7205,28.105,28.6,1
11288526,-0.305,-0.427,-0.061,0.3693,-0.3124,9.7049,28.154,28.6,1
11298532,-0.366,-0.366,0.000,0.3998,-0.3226,9.7037,28.074,28.6,1
11308534,-0.366,-0.305,-0.061,0.3968,-0.3148,9.7091,28.092,28.6,1
11318538,-0.366,-0.427,-0.061,0.3795,-0.3035,9.6971,28.113,28.6,1
11328553,-0.366,-0.488,-0.122,0.4094,-0.3029,9.7055,28.141,28.6,1
11338568,-0.305,-0.427,0.000,0.3950,-0.3100,9.7067,28.104,28.6,1
11348568,-0.366,-0.366,-0.061,0.3825,-0.3100,9.7294,28.133,28.6,1
11358568,-0.366,-0.427,0.000,0.3891,-0.3148,9.7049,28.107,28.6,1
11368579,-0.366,-0.366,-0.061,0.3962,-0.3220,9.6630,28.111,28.6,1
11378579,-0.366,-0.366,-0.061,0.3968,-0.3310,9.7013,28.084,28.6,1
11388586,-0.366,-0.366,-0.061,0.4046,-0.2975,9.7025,28.104,28.6,1
11398593,-0.366,-0.366,-0.061,0.4142,-0.3029,9.7145,28.086,28.6,1
11408598,-0.427,-0.366,0.000,0.3968,-0.3011,9.7336,28.141,28.6,1
11418602,-0.427,-0.366,-0.061,0.3998,-0.3196,9.7031,28.074,28.6,1
11428614,-0.366,-0.366,-0.061,0.3825,-0.3298,9.7151,28.107,28.6,1
11438625,-0.427,-0.488,0.000,0.3663,-0.3130,9.7001,28.109,28.6,1
11448632,-0.305,-0.427,-0.061,0.3861,-0.3059,9.7001,28.127,28.6,1
11458645,-0.305,-0.366,-0.061,0.3843,-0.3196,9.7252,28.127,28.6,1
11468655,-0.305,-0.366,0.000,0.3962,-0.3208,9.7151,28.146,28.6,1
11478659,-0.366,-0.427,0.000,0.3968,-0.3178,9.7276,28.059,28.6,1
11488663,-0.488,-0.366,-0.061,0.3765,-0.3059,9.6923,28.084,28.6,1
11498663,-0.366,-0.366,-0.122,0.3753,-0.3298,9.7229,28.111,28.6,1
11508663,-0.366,-0.305,0.000,0.3921,-0.3017,9.7264,28.107,28.6,1
11518663,-0.305,-0.427,0.000,0.4040,-0.3071,9.7348,28.129,28.6,1
11528674,-0.366,-0.488,-0.061,0.3903,-0.3166,9.7241,28.107,28.6,1
11538686,-0.366,-0.366,-0.061,0.3921,-0.3202,9.7019,28.078,28.6,1
11548688,-0.305,-0.366,-0.061,0.3909,-0.3130,9.7061,28.135,28.6,1
11558689,-0.305,-0.427,-0.122,0.3855,-0.2987,9.7049,28.100,28.6,1
11568689,-0.305,-0.366,-0.122,0.3998,-0.3083,9.7073,28.125,28.6,1
11578690,-0.305,-0.366,-0.061,0.3998,-0.3166,9.7246,28.070,28.6,1
11588691,-0.366,-0.427,-0.122,0.3837,-0.3154,9.7067,28.133,28.6,1
11598701,-0.427,-0.427,-0.061,0.3723,-0.3232,9.7241,28.127,28.6,1
11608714,-0.305,-0.366,-0.061,0.3729,-0.3178,9.7217,28.074,28.6,1
11618716,-0.366,-0.366,-0.061,0.3843,-0.3214,9.7288,28.102,28.6,1
11628727,-0.305,-0.427,0.000,0.3932,-0.3190,9.7288,28.102,28.6,1
11638739,-0.305,-0.366,0.000,0.3980,-0.3100,9.7025,28.107,28.6,1
11648750,-0.366,-0.366,0.000,0.3879,-0.3041,9.7121,28.102,28.6,1
11658762,-0.366,-0.366,-0.061,0.3753,-0.3059,9.7396,28.143,28.6,1
11668762,-0.366,-0.488,-0.061,0.3891,-0.3160,9.7217,28.105,28.6,1
11678762,-0.366,-0.488,0.000,0.3962,-0.3166,9.7294,28.092,28.6,1
11688764,-0.366,-0.366,0.000,0.3825,-0.3304,9.6911,28.121,28.6,1
11698775,-0.244,-0.366,-0.061,0.3855,-0.3178,9.7133,28.129,28.6,1
11708777,-0.305,-0.427,-0.122,0.3962,-0.3053,9.7235,28.084,28.6,1
11718780,-0.305,-0.488,-0.061,0.4154,-0.3118,9.7079,28.078,28.6,1
11728781,-0.305,-0.366,-0.122,0.3897,-0.3208,9.7001,28.084,28.6,1
11738781,-0.366,-0.305,-0.061,0.3897,-0.3029,9.7175,28.090,28.6,1
11748781,-0.305,-0.305,0.000,0.3956,-0.2999,9.7079,28.129,28.6,1
11758794,-0.366,-0.366,-0.122,0.3885,-0.3172,9.7151,28.105,28.6,1
11768808,-0.366,-0.427,-0.122,0.3992,-0.3178,9.7151,28.094,28.6,1
11778811,-0.305,-0.427,-0.061,0.3879,-0.3466,9.7073,28.096,28.6,1
11788815,-0.305,-0.366,-0.061,0.4010,-0.3502,9.7169,28.125,28.6,1
11798826,-0.305,-0.427,-0.061,0.3831,-0.3154,9.7205,28.107,28.6,1
11808836,-0.366,-0.427,-0.061,0.3855,-0.3238,9.6881,28.107,28.6,1
11818845,-0.366,-0.366,-0.061,0.3849,-0.3525,9.7181,28.107,28.6,1
11828853,-0.305,-0.305,-0.122,0.3807,-0.3370,9.6947,28.115,28.6,1
11838866,-0.366,-0.366,-0.061,0.3681,-0.3286,9.7121,28.139,28.6,1
11848876,-0.366,-0.427,-0.061,0.3903,-0.3256,9.7109,28.113,28.6,1
11858884,-0.366,-0.427,-0.122,0.3855,-0.3083,9.6905,28.094,28.6,1
11868891,-0.366,-0.366,-0.122,0.3986,-0.3262,9.7318,28.107,28.6,1
11878899,-0.305,-0.366,-0.122,0.3938,-0.3286,9.7121,28.115,28.6,1
11888899,-0.305,-0.427,-0.061,0.3950,-0.3124,9.7079,28.068,28.6,1
11898912,-0.427,-0.427,-0.061,0.3789,-0.3376,9.6989,28.123,28.6,1
11908912,-0.427,-0.305,-0.061,0.3795,-0.3130,9.7049,28.072,28.6,1
11918912,-0.305,-0.366,-0.061,0.3992,-0.3280,9.7235,28.078,28.6,1
11928921,-0.305,-0.427,-0.122,0.3903,-0.3178,9.7187,28.102,28.6,1
11938929,-0.305,-0.427,-0.061,0.3765,-0.3196,9.6989,28.133,28.6,1
11948929,-0.305,-0.366,-0.061,0.4004,-0.3268,9.6977,28.096,28.6,1
11958942,-0.366,-0.366,0.000,0.4130,-0.3478,9.7246,28.115,28.6,1
11968945,-0.305,-0.427,0.000,0.3861,-0.3406,9.6935,28.076,28.6,1
11978958,-0.366,-0.427,-0.061,0.3867,-0.3298,9.7037,28.123,28.6,1
11988973,-0.366,-0.366,-0.061,0.3741,-0.3346,9.7438,28.123,28.6,1
11998979,-0.305,-0.427,-0.061,0.3777,-0.3382,9.7187,28.137,28.6,1
12008990,-0.427,-0.488,-0.061,0.3915,-0.3160,9.7241,28.111,28.6,1
12018992,-0.366,-0.427,-0.061,0.4070,-0.3172,9.7211,28.113,29.6,1
12028997,-0.305,-0.305,-0.061,0.3765,-0.3394,9.6953,28.141,28.6,1
12039009,-0.305,-0.366,0.000,0.3705,-0.3334,9.6738,28.137,28.6,1
12049009,-0.366,-0.427,0.000,0.3980,-0.3166,9.7157,28.105,28.6,1
12059012,-0.427,-0.305,0.000,0.3885,-0.3238,9.7121,28.117,28.6,1
12069026,-0.366,-0.366,-0.061,0.3861,-0.3304,9.7085,28.139,28.6,1
12079039,-0.244,-0.427,-0.122,0.3831,-0.3304,9.7013,28.082,28.6,1
12089041,-0.366,-0.427,-0.061,0.3944,-0.3166,9.6971,28.127,28.6,1
12099052,-0.488,-0.366,0.000,0.3998,-0.3238,9.6983,28.127,28.6,1
12109054,-0.366,-0.366,0.000,0.3753,-0.3238,9.7127,28.082,28.6,1
12119057,-0.305,-0.366,-0.061,0.4016,-0.3106,9.7049,28.080,28.6,1
12129070,-0.244,-0.366,-0.122,0.3807,-0.3232,9.6881,28.066,28.6,1
12139070,-0.427,-0.366,-0.061,0.3843,-0.3256,9.6977,28.098,28.6,1
12149080,-0.366,-0.366,-0.061,0.3921,-0.3340,9.7420,28.105,28.6,1
12159091,-0.305,-0.366,-0.061,0.3891,-0.3166,9.7360,28.078,28.6,1
12169105,-0.366,-0.366,0.000,0.3909,-0.3202,9.6905,28.078,28.6,1
12179115,-0.366,-0.427,-0.061,0.3765,-0.3274,9.6636,28.109,28.6,1
12189118,-0.305,-0.366,0.000,0.3944,-0.3035,9.6881,28.104,28.6,1
12199125,-0.366,-0.366,0.000,0.3938,-0.3394,9.7151,28.086,28.6,1
12209133,-0.305,-0.366,-0.122,0.3879,-0.3274,9.7199,28.096,28.6,1
12219136,-0.427,-0.366,0.000,0.3921,-0.3142,9.6911,28.105,28.6,1
12229137,-0.427,-0.366,-0.061,0.3861,-0.3178,9.6983,28.107,28.6,1
12239140,-0.305,-0.488,-0.061,0.3885,-0.3142,9.6750,28.092,28.6,1
12249140,-0.366,-0.366,-0.061,0.3992,-0.3304,9.6995,28.105,28.6,1
12259146,-0.366,-0.427,-0.061,0.3789,-0.3262,9.6953,28.086,28.6,1
12269146,-0.305,-0.366,-0.061,0.4010,-0.3388,9.6971,28.105,28.6,1
12279161,-0.244,-0.366,-0.122,0.3956,-0.3059,9.6971,28.109,28.6,1
12289161,-0.366,-0.366,-0.122,0.3950,-0.3184,9.7169,28.105,28.6,1
12299167,-0.305,-0.427,0.000,0.3980,-0.3262,9.7121,28.111,28.6,1
12309176,-0.305,-0.488,0.000,0.3992,-0.3274,9.7139,28.080,28.6,1
12319179,-0.305,-0.427,0.000,0.3819,-0.3077,9.7043,28.129,28.6,1
12329179,-0.305,-0.366,0.000,0.3891,-0.3316,9.7013,28.086,28.6,1
12339186,-0.366,-0.427,-0.122,0.3813,-0.3262,9.7139,28.086,28.6,1
12349194,-0.427,-0.366,-0.122,0.3992,-0.3226,9.7025,28.102,28.6,1
12359207,-0.488,-0.366,-0.061,0.3729,-0.3089,9.7145,28.098,28.6,1
12369209,-0.427,-0.366,0.000,0.3867,-0.3136,9.6977,28.104,28.6,1
12379209,-0.366,-0.366,-0.122,0.3777,-0.3196,9.7258,28.102,28.6,1
12389209,-0.366,-0.366,-0.122,0.4034,-0.3196,9.7264,28.070,28.6,1
12399209,-0.366,-0.305,-0.061,0.3861,-0.3358,9.7217,28.105,28.6,1
12409213,-0.305,-0.366,0.000,0.4040,-0.3388,9.6989,28.117,28.6,1
12419214,-0.366,-0.305,-0.122,0.3819,-0.3310,9.6827,28.123,28.6,1
12429222,-0.427,-0.427,-0.122,0.3873,-0.3418,9.6917,28.092,28.6,1
12439224,-0.427,-0.366,-0.061,0.3777,-0.3250,9.7241,28.125,28.6,1
12449224,-0.366,-0.427,-0.122,0.3992,-0.3184,9.7229,28.107,28.6,1
12459228,-0.244,-0.427,-0.061,0.3831,-0.3286,9.6971,28.129,28.6,1
12469239,-0.427,-0.427,-0.061,0.4010,-0.3154,9.6965,28.094,28.6,1
12479243,-0.366,-0.427,-0.061,0.3855,-0.3244,9.6971,28.141,28.6,1
12489244,-0.366,-0.366,-0.061,0.3968,-0.3286,9.7151,28.088,28.6,1
12499252,-0.366,-0.366,-0.122,0.4070,-0.3208,9.7085,28.141,28.6,1
12509262,-0.305,-0.366,-0.061,0.4016,-0.3412,9.7085,28.064,28.6,1
12519273,-0.366,-0.427,0.000,0.3932,-0.3232,9.7169,28.064,28.6,1
12529283,-0.366,-0.366,-0.061,0.3921,-0.3196,9.7115,28.107,28.6,1
12539285,-0.305,-0.427,-0.122,0.3891,-0.3436,9.6989,28.121,28.6,1
12549293,-0.305,-0.366,0.000,0.3771,-0.3328,9.7169,28.109,28.6,1
12559298,-0.305,-0.305,-0.061,0.3962,-0.3160,9.7390,28.117,28.6,1
12569304,-0.366,-0.366,-0.061,0.3855,-0.3148,9.7031,28.139,28.6,1
12579318,-0.366,-0.488,-0.122,0.3968,-0.3310,9.6762,28.090,28.6,1
12589319,-0.305,-0.366,-0.061,0.4046,-0.3424,9.6947,28.137,28.6,1
12599319,-0.305,-0.366,0.000,0.3867,-0.3196,9.7318,28.141,28.6,1
12609328,-0.305,-0.366,-0.122,0.3861,-0.3250,9.7109,28.082,28.6,1
12619328,-0.366,-0.427,-0.061,0.3944,-0.3298,9.7061,28.070,28.6,1
12629331,-0.488,-0.427,-0.061,0.3867,-0.3286,9.7121,28.107,28.6,1
12639334,-0.305,-0.366,-0.061,0.3998,-0.3292,9.7031,28.113,28.6,1
12649338,-0.305,-0.366,-0.061,0.3861,-0.3394,9.7055,28.105,28.6,1
12659344,-0.366,-0.427,-0.061,0.3915,-0.3388,9.7181,28.139,28.6,1
12669346,-0.427,-0.366,0.000,0.3938,-0.3340,9.7270,28.080,28.6,1
12679354,-0.366,-0.305,-0.061,0.4232,-0.3196,9.7109,28.119,28.6,1
12689354,-0.366,-0.366,-0.061,0.4040,-0.3178,9.7127,28.076,28.6,1
12699361,-0.427,-0.305,0.061,0.3891,-0.3190,9.7055,28.076,28.6,1
12709361,-0.366,-0.427,0.000,0.3962,-0.3448,9.7097,28.088,28.6,1
12719369,-0.366,-0.366,-0.061,0.4016,-0.3370,9.7097,28.098,28.6,1
12729374,-0.366,-0.427,-0.061,0.3998,-0.3184,9.7043,28.092,28.6,1
12739376,-0.305,-0.427,-0.061,0.3789,-0.3250,9.7366,28.100,28.6,1
12749390,-0.366,-0.366,-0.061,0.3825,-0.3100,9.7091,28.113,28.6,1
12759399,-0.366,-0.305,-0.183,0.3849,-0.3238,9.6971,28.156,28.6,1
12769405,-0.366,-0.488,-0.061,0.3783,-0.3298,9.7025,28.088,28.6,1
12779407,-0.244,-0.427,-0.061,0.4028,-0.3286,9.7211,28.107,28.6,1
12789410,-0.244,-0.427,-0.122,0.3903,-0.3328,9.6983,28.098,28.6,1
12799410,-0.366,-0.488,-0.061,0.4028,-0.3178,9.6989,28.076,28.6,1
12809422,-0.366,-0.427,-0.061,0.3926,-0.3136,9.7127,28.113,29.6,1
12819422,-0.427,-0.366,0.000,0.3855,-0.3238,9.7217,28.094,28.6,1
12829422,-0.427,-0.366,-0.122,0.3717,-0.3178,9.7091,28.148,28.6,1
12839427,-0.427,-0.427,-0.061,0.3921,-0.3202,9.6965,28.090,28.6,1
12849435,-0.366,-0.427,-0.122,0.3855,-0.3394,9.7043,28.131,28.6,1
12859437,-0.366,-0.427,-0.122,0.3855,-0.3106,9.7187,28.104,28.6,1
12869441,-0.366,-0.366,-0.061,0.3926,-0.3244,9.7193,28.104,28.6,1
12879441,-0.366,-0.427,0.000,0.3891,-0.3508,9.7109,28.076,28.6,1
12889445,-0.366,-0.427,-0.122,0.3962,-0.3328,9.6941,28.080,28.6,1
12899450,-0.305,-0.427,-0.122,0.3980,-0.3202,9.7157,28.127,28.6,1
12909453,-0.305,-0.427,-0.061,0.3795,-0.3310,9.7103,28.131,28.6,1
12919465,-0.305,-0.427,-0.061,0.3903,-0.3244,9.7121,28.125,28.6,1
12929466,-0.366,-0.366,-0.122,0.3980,-0.3388,9.7133,28.143,28.6,1
12939468,-0.427,-0.366,-0.061,0.3926,-0.3334,9.7211,28.100,28.6,1
12949468,-0.366,-0.366,0.000,0.3843,-0.3268,9.7019,28.092,28.6,1
12959481,-0.366,-0.366,-0.122,0.3962,-0.3172,9.7055,28.070,28.6,1
12969487,-0.427,-0.427,0.000,0.3885,-0.3280,9.7330,28.117,28.6,1
12979488,-0.244,-0.427,-0.061,0.3843,-0.3490,9.7049,28.092,28.6,1
12989496,-0.305,-0.366,-0.122,0.3795,-0.3406,9.6780,28.125,28.6,1
12999496,-0.366,-0.427,-0.061,0.3873,-0.3160,9.6893,28.082,28.6,1
13009498,-0.427,-0.366,0.000,0.4058,-0.3310,9.7193,28.076,29.6,1
13019501,-0.305,-0.427,-0.061,0.3962,-0.3454,9.7019,28.129,28.6,1
13029501,-0.366,-0.305,-0.061,0.3831,-0.3268,9.7007,28.098,29.6,1
13039502,-0.366,-0.244,0.000,0.3950,-0.3430,9.7025,28.135,29.6,1
13049506,-0.305,-0.366,0.000,0.3771,-0.3418,9.6989,28.135,28.6,1
13059511,-0.244,-0.427,0.000,0.3950,-0.3292,9.7061,28.129,28.6,1
13069518,-0.305,-0.427,-0.122,0.3903,-0.3340,9.7235,28.096,28.6,1
13079521,-0.305,-0.366,-0.061,0.4022,-0.3166,9.7013,28.066,28.6,1
13089523,-0.183,-0.366,0.000,0.3921,-0.3370,9.6845,28.078,29.6,1
13099534,-0.366,-0.366,-0.061,0.4022,-0.3346,9.7205,28.086,29.6,1
13109538,-0.305,-0.427,-0.061,0.3956,-0.3322,9.7504,28.125,28.6,1
13119549,-0.305,-0.366,0.000,0.3747,-0.3190,9.7360,28.133,29.6,1
13129549,-0.366,-0.488,-0.122,0.3765,-0.3047,9.7187,28.076,28.6,1
13139552,-0.366,-0.366,-0.183,0.3771,-0.3089,9.7217,28.168,29.6,1
13149554,-0.366,-0.305,0.000,0.3974,-0.3190,9.7252,28.107,28.6,1
13159564,-0.366,-0.366,-0.061,0.3765,-0.3190,9.7157,28.135,28.6,1
13169568,-0.244,-0.366,-0.061,0.3992,-0.3232,9.7025,28.076,29.6,1
13179579,-0.305,-0.366,-0.122,0.3986,-0.3364,9.6780,28.139,28.6,1
13189579,-0.427,-0.366,-0.061,0.3903,-0.3160,9.6857,28.115,28.6,1
13199579,-0.427,-0.427,-0.061,0.3956,-0.3226,9.7258,28.080,28.6,1
13209582,-0.366,-0.366,-0.061,0.3801,-0.3268,9.7007,28.100,28.6,1
13219594,-0.305,-0.305,-0.122,0.3962,-0.3202,9.7067,28.096,28.6,1
13229595,-0.366,-0.366,-0.061,0.3909,-0.3316,9.7079,28.096,29.6,1
13239610,-0.366,-0.366,-0.061,0.3729,-0.3160,9.6947,28.082,29.6,1
13249617,-0.366,-0.366,-0.183,0.3837,-0.3292,9.7007,28.121,28.6,1
13259625,-0.366,-0.427,-0.061,0.3879,-0.3298,9.7085,28.072,28.6,1
13269628,-0.305,-0.427,0.061,0.4028,-0.3220,9.7169,28.107,29.6,1
13279636,-0.366,-0.366,0.000,0.4208,-0.3304,9.7007,28.127,28.6,1
13289640,-0.366,-0.305,-0.061,0.3801,-0.3310,9.7115,28.141,29.6,1
13299640,-0.305,-0.305,-0.122,0.3926,-0.3280,9.7205,28.129,29.6,1
13309647,-0.305,-0.305,-0.061,0.3825,-0.3214,9.7264,28.107,29.6,1
13319655,-0.366,-0.366,-0.061,0.3801,-0.3190,9.7157,28.096,28.6,1
13329659,-0.305,-0.427,0.000,0.3741,-0.3268,9.7139,28.111,28.6,1
13339671,-0.488,-0.427,-0.061,0.3867,-0.3400,9.7079,28.084,28.6,1
13349675,-0.427,-0.427,-0.061,0.3753,-0.3112,9.7205,28.082,28.6,1
13359686,-0.366,-0.366,-0.122,0.3789,-0.3424,9.7037,28.109,28.6,1
13369693,-0.366,-0.366,-0.061,0.3909,-0.3424,9.7264,28.162,28.6,1
13379698,-0.366,-0.488,-0.061,0.3801,-0.3244,9.7019,28.078,28.6,1
13389705,-0.366,-0.366,-0.061,0.3837,-0.3280,9.7294,28.074,29.6,1
13399718,-0.366,-0.305,-0.061,0.3938,-0.3316,9.7193,28.125,28.6,1
13409727,-0.366,-0.366,-0.122,0.3956,-0.3232,9.6833,28.125,28.6,1
13419735,-0.305,-0.366,-0.061,0.3962,-0.3274,9.6965,28.166,29.6,1
13429747,-0.366,-0.305,0.000,0.3879,-0.3142,9.7372,28.109,28.6,1
13439754,-0.427,-0.488,0.000,0.3921,-0.3298,9.7378,28.102,28.6,1
13449762,-0.427,-0.427,-0.122,0.3921,-0.3376,9.7019,28.111,28.6,1
13459762,-0.427,-0.366,-0.061,0.3873,-0.3220,9.6774,28.092,28.6,1
13469762,-0.305,-0.488,0.000,0.3831,-0.3286,9.7127,28.141,28.6,1
13479766,-0.366,-0.366,-0.061,0.3723,-0.3232,9.7109,28.107,28.6,1
13489769,-0.366,-0.366,-0.122,0.4028,-0.3148,9.7001,28.102,28.6,1
13499781,-0.366,-0.366,-0.061,0.3944,-0.3220,9.7181,28.129,29.6,1
13509781,-0.427,-0.366,0.000,0.3986,-0.3178,9.7187,28.129,28.6,1
13519781,-0.244,-0.366,-0.122,0.3950,-0.3023,9.7336,28.105,28.6,1
13529790,-0.366,-0.427,-0.122,0.3998,-0.3035,9.7205,28.146,29.6,1
13539790,-0.427,-0.305,-0.061,0.3855,-0.3178,9.7294,28.115,28.6,1
13549792,-0.366,-0.366,-0.061,0.3771,-0.3340,9.7199,28.092,28.6,1
13559806,-0.244,-0.366,0.000,0.3921,-0.3106,9.6869,28.115,28.6,1
13569811,-0.305,-0.366,-0.122,0.3753,-0.3142,9.7217,28.113,28.6,1
13579815,-0.366,-0.366,-0.061,0.3813,-0.3190,9.7211,28.113,28.6,1
13589818,-0.305,-0.366,-0.122,0.3813,-0.3130,9.6989,28.096,28.6,1
13599830,-0.366,-0.427,-0.122,0.3879,-0.3112,9.6959,28.154,28.6,1
13609836,-0.366,-0.366,-0.122,0.3944,-0.3304,9.7181,28.146,28.6,1
13619842,-0.366,-0.366,-0.122,0.3903,-0.3124,9.7258,28.111,29.6,1
13629853,-0.366,-0.305,0.000,0.3968,-0.3334,9.7019,28.139,28.6,1
13639853,-0.366,-0.305,0.000,0.3831,-0.3095,9.7037,28.076,29.6,1
13649853,-0.305,-0.427,-0.122,0.3897,-0.3118,9.7067,28.080,28.6,1
13659853,-0.427,-0.427,-0.122,0.3855,-0.3376,9.6798,28.127,29.6,1
13669866,-0.366,-0.366,-0.061,0.3837,-0.3442,9.7049,28.104,28.6,1
13679866,-0.244,-0.366,-0.122,0.3926,-0.3268,9.7043,28.121,28.6,1
13689869,-0.305,-0.427,-0.061,0.3998,-0.3238,9.7282,28.143,29.6,1
13699872,-0.305,-0.366,-0.183,0.3855,-0.3160,9.7492,28.076,28.6,1
13709881,-0.427,-0.366,-0.183,0.3825,-0.3148,9.7241,28.105,28.6,1
13719884,-0.427,-0.366,-0.122,0.3938,-0.3172,9.7241,28.076,29.6,1
13729884,-0.366,-0.366,-0.061,0.4100,-0.3388,9.7175,28.137,28.6,1
13739884,-0.305,-0.427,-0.122,0.4010,-0.3418,9.6935,28.088,29.6,1
13749884,-0.366,-0.427,-0.122,0.3849,-0.3537,9.6965,28.082,28.6,1
13759891,-0.427,-0.427,-0.061,0.3897,-0.3412,9.7007,28.082,28.6,1
13769904,-0.305,-0.366,-0.061,0.3789,-0.3280,9.7073,28.139,28.6,1
13779906,-0.366,-0.305,-0.122,0.3651,-0.3274,9.6947,28.121,29.6,1
13789912,-0.427,-0.366,-0.122,0.3723,-0.3256,9.7043,28.092,29.6,1
13799912,-0.305,-0.427,-0.122,0.3873,-0.3316,9.7276,28.135,28.6,1
13809914,-0.427,-0.427,-0.061,0.3921,-0.3424,9.6893,28.109,29.6,1
13819914,-0.366,-0.427,-0.061,0.3909,-0.3328,9.7246,28.104,28.6,1
13829914,-0.366,-0.366,-0.183,0.3765,-0.3304,9.7169,28.119,29.6,1
13839914,-0.366,-0.366,-0.061,0.3771,-0.3274,9.7073,28.123,29.6,1
13849914,-0.366,-0.366,-0.061,0.3938,-0.3029,9.7252,28.127,28.6,1
13859918,-0.427,-0.366,-0.061,0.4052,-0.3412,9.7067,28.129,29.6,1
13869918,-0.305,-0.366,-0.061,0.3980,-0.3585,9.6726,28.115,29.6,1
13879918,-0.244,-0.366,-0.061,0.3807,-0.3280,9.7270,28.117,29.6,1
13889929,-0.366,-0.366,-0.061,0.3926,-0.3160,9.7480,28.107,28.6,1
13899932,-0.366,-0.366,-0.061,0.3873,-0.3286,9.7097,28.102,29.6,1
13909936,-0.305,-0.366,-0.061,0.3903,-0.3358,9.7115,28.123,29.6,1
13919937,-0.305,-0.366,-0.061,0.3795,-0.3334,9.7007,28.102,28.6,1
13929945,-0.305,-0.427,0.000,0.3861,-0.3214,9.7181,28.143,29.6,1
13939958,-0.305,-0.366,-0.061,0.4010,-0.3340,9.7229,28.143,29.6,1
13949960,-0.366,-0.366,-0.122,0.4016,-0.3334,9.6893,28.127,29.6,1
13959967,-0.488,-0.366,-0.061,0.3909,-0.3124,9.6929,28.133,29.6,1
13969979,-0.427,-0.366,0.000,0.4076,-0.3322,9.7175,28.150,29.6,1
13979982,-0.427,-0.366,-0.061,0.4094,-0.3286,9.7145,28.111,29.6,1
13989994,-0.305,-0.427,-0.122,0.3956,-0.3184,9.7366,28.092,29.6,1
13999994,-0.366,-0.305,-0.122,0.3998,-0.3184,9.7133,28.059,28.6,1
14009997,-0.427,-0.427,-0.061,0.3956,-0.3232,9.7049,28.109,29.6,1
14020006,-0.427,-0.366,-0.061,0.4016,-0.3226,9.7037,28.094,28.6,1
14030006,-0.305,-0.366,-0.061,0.4088,-0.3256,9.7043,28.115,29.6,1
14040009,-0.366,-0.427,-0.122,0.4004,-0.3100,9.7282,28.104,29.6,1
14050025,-0.305,-0.366,-0.122,0.3867,-0.3262,9.7043,28.115,28.6,1
14060030,-0.366,-0.305,-0.061,0.3831,-0.3118,9.6851,28.076,28.6,1
14070030,-0.427,-0.427,-0.061,0.4010,-0.3059,9.7229,28.105,29.6,1
14080039,-0.427,-0.366,-0.061,0.3956,-0.3412,9.6971,28.094,28.6,1
14090041,-0.427,-0.366,-0.061,0.3837,-0.3250,9.7091,28.135,29.6,1
14100048,-0.366,-0.366,-0.122,0.4010,-0.3118,9.7211,28.119,29.6,1
14110060,-0.366,-0.427,-0.061,0.4064,-0.3184,9.7031,28.119,29.6,1
14120072,-0.305,-0.427,-0.061,0.3968,-0.3142,9.6893,28.123,29.6,1
14130077,-0.427,-0.366,-0.122,0.4052,-0.3160,9.7103,28.102,29.6,1
14140080,-0.366,-0.366,-0.061,0.3998,-0.3196,9.7061,28.092,28.6,1
14150085,-0.305,-0.427,0.000,0.3944,-0.3268,9.6726,28.139,28.6,1
14160091,-0.305,-0.366,-0.061,0.3837,-0.3208,9.6881,28.102,28.6,1
14170091,-0.244,-0.366,-0.061,0.3783,-0.3190,9.7217,28.127,28.6,1
14180100,-0.366,-0.366,0.000,0.3831,-0.3178,9.7115,28.139,29.6,1
14190113,-0.488,-0.366,-0.122,0.3651,-0.3226,9.7115,28.127,28.6,1
14200115,-0.366,-0.366,-0.183,0.3717,-0.3436,9.6851,28.107,29.6,1
14210115,-0.305,-0.427,-0.122,0.3891,-0.3418,9.7330,28.084,29.6,1
14220118,-0.366,-0.366,0.000,0.3807,-0.3406,9.7073,28.068,29.6,1
14230121,-0.366,-0.305,-0.061,0.3843,-0.3250,9.7252,28.104,28.6,1
14240125,-0.366,-0.366,-0.122,0.4094,-0.3256,9.6917,28.131,29.6,1
14250125,-0.427,-0.427,-0.122,0.3843,-0.3148,9.7270,28.141,29.6,1
14260133,-0.305,-0.427,-0.061,0.3962,-0.3142,9.7270,28.076,29.6,1
14270133,-0.366,-0.366,0.000,0.3974,-0.3286,9.7151,28.094,29.6,1
14280133,-0.305,-0.305,-0.061,0.4046,-0.3178,9.6977,28.158,29.6,1
14290133,-0.305,-0.427,-0.061,0.4052,-0.3083,9.7043,28.158,29.6,1
14300136,-0.305,-0.427,-0.122,0.3915,-0.3208,9.7007,28.090,29.6,1
14310136,-0.427,-0.366,-0.122,0.4034,-0.3148,9.7085,28.107,29.6,1
14320146,-0.549,-0.366,-0.122,0.3915,-0.3220,9.6798,28.092,29.6,1
14330152,-0.366,-0.305,-0.061,0.3885,-0.3017,9.7115,28.139,29.6,1
14340163,-0.366,-0.366,-0.061,0.3909,-0.3226,9.7079,28.156,29.6,1
14350171,-0.305,-0.366,-0.061,0.3855,-0.3166,9.6875,28.119,29.6,1
14360179,-0.305,-0.366,-0.122,0.3873,-0.3065,9.7151,28.141,29.6,1
14370191,-0.366,-0.305,0.000,0.4004,-0.3256,9.7043,28.107,29.6,1
14380197,-0.366,-0.366,0.061,0.3831,-0.3083,9.7163,28.129,29.6,1
14390209,-0.305,-0.366,0.000,0.3897,-0.3142,9.7043,28.137,29.6,1
14400209,-0.305,-0.244,-0.061,0.3962,-0.3041,9.7091,28.100,28.6,1
14410209,-0.305,-0.305,-0.061,0.3950,-0.3029,9.7019,28.141,29.6,1
14420217,-0.366,-0.366,-0.061,0.3687,-0.3244,9.7139,28.104,29.6,1
14430217,-0.366,-0.366,0.061,0.3867,-0.3232,9.7205,28.117,29.6,1
14440224,-0.366,-0.427,-0.061,0.3843,-0.3118,9.7043,28.078,28.6,1
14450228,-0.427,-0.366,-0.061,0.3843,-0.3154,9.7187,28.104,28.6,1
14460232,-0.427,-0.366,-0.061,0.3843,-0.2969,9.7306,28.096,28.6,1
14470239,-0.366,-0.366,-0.061,0.3837,-0.3053,9.7115,28.096,29.6,1
14480247,-0.366,-0.366,-0.061,0.4076,-0.3328,9.7151,28.131,29.6,1
14490255,-0.366,-0.488,-0.061,0.3938,-0.3238,9.7181,28.062,29.6,1
14500258,-0.366,-0.427,-0.061,0.3879,-0.3214,9.6995,28.084,29.6,1
14510258,-0.427,-0.366,-0.061,0.3903,-0.3316,9.7091,28.100,29.6,1
14520268,-0.427,-0.366,-0.122,0.4022,-0.3232,9.7025,28.111,29.6,1
14530268,-0.366,-0.366,-0.061,0.3938,-0.3178,9.7097,28.135,29.6,1
14540275,-0.305,-0.427,-0.061,0.3789,-0.3029,9.6929,28.178,29.6,1
14550285,-0.305,-0.427,-0.122,0.3801,-0.3190,9.7055,28.104,29.6,1
14560289,-0.305,-0.427,-0.061,0.4004,-0.3310,9.7055,28.172,29.6,1
14570298,-0.305,-0.366,0.061,0.3813,-0.3166,9.7133,28.109,28.6,1
14580298,-0.427,-0.366,0.000,0.3921,-0.3083,9.7103,28.098,29.6,1
14590303,-0.366,-0.366,0.000,0.3771,-0.3250,9.7348,28.076,29.6,1
14600313,-0.305,-0.427,-0.061,0.3909,-0.3220,9.7019,28.092,29.6,1
14610313,-0.366,-0.366,0.000,0.3711,-0.3250,9.7151,28.121,29.6,1
14620316,-0.366,-0.366,0.000,0.3944,-0.3208,9.7049,28.125,29.6,1
14630320,-0.305,-0.366,-0.183,0.4106,-0.3112,9.7073,28.094,29.6,1
14640326,-0.366,-0.366,-0.061,0.3968,-0.3166,9.7312,28.094,29.6,1
14650331,-0.305,-0.366,-0.122,0.3903,-0.3077,9.7378,28.119,29.6,1
14660334,-0.427,-0.366,-0.061,0.3867,-0.3005,9.7139,28.164,29.6,1
14670338,-0.427,-0.366,-0.122,0.3807,-0.3220,9.6971,28.131,29.6,1
14680344,-0.366,-0.366,0.000,0.3645,-0.3071,9.6983,28.143,29.6,1
14690354,-0.366,-0.366,-0.061,0.3687,-0.3412,9.7019,28.104,29.6,1
14700354,-0.427,-0.427,0.000,0.3926,-0.3220,9.7079,28.156,29.6,1
14710365,-0.305,-0.366,-0.061,0.4226,-0.3089,9.7348,28.135,29.6,1
14720376,-0.366,-0.366,-0.061,0.3849,-0.3172,9.7133,28.094,29.6,1
14730389,-0.305,-0.427,0.000,0.3699,-0.3214,9.7187,28.100,29.6,1
14740390,-0.305,-0.305,0.000,0.4070,-0.3256,9.7258,28.111,29.6,1
14750405,-0.366,-0.366,-0.061,0.3932,-0.2975,9.7127,28.092,29.6,1
14760414,-0.366,-0.427,0.000,0.3873,-0.2999,9.6863,28.113,29.6,1
14770426,-0.366,-0.427,0.000,0.3843,-0.3130,9.7121,28.129,29.6,1
14780435,-0.427,-0.427,0.000,0.3873,-0.3047,9.7312,28.131,29.6,1
14790440,-0.366,-0.427,-0.061,0.3968,-0.3292,9.7061,28.107,29.6,1
14800450,-0.366,-0.305,-0.061,0.3962,-0.3011,9.7121,28.174,29.6,1
14810456,-0.427,-0.427,0.000,0.3909,-0.3017,9.6816,28.145,29.6,1
14820460,-0.366,-0.366,0.000,0.3944,-0.3172,9.7019,28.145,29.6,1
14830468,-0.305,-0.305,-0.061,0.3926,-0.3250,9.7139,28.143,29.6,1
14840471,-0.427,-0.305,-0.061,0.3926,-0.3196,9.7031,28.168,29.6,1
14850471,-0.427,-0.427,0.000,0.3759,-0.3250,9.6875,28.113,29.6,1
14860481,-0.305,-0.427,-0.061,0.3729,-0.3244,9.7169,28.107,29.6,1
14870491,-0.305,-0.427,-0.061,0.4004,-0.3184,9.7468,28.123,29.6,1
14880498,-0.305,-0.366,-0.122,0.3998,-0.3118,9.7043,28.107,29.6,1
14890506,-0.366,-0.366,-0.122,0.3867,-0.3298,9.7091,28.119,29.6,1
14900511,-0.427,-0.427,-0.122,0.3891,-0.3148,9.6977,28.113,29.6,1
14910521,-0.427,-0.366,-0.061,0.3771,-0.3142,9.7115,28.117,29.6,1
14920534,-0.427,-0.427,0.061,0.3974,-0.3112,9.7079,28.113,29.6,1
14930534,-0.305,-0.366,0.000,0.3825,-0.3190,9.6995,28.107,29.6,1
14940546,-0.427,-0.366,-0.061,0.4022,-0.3250,9.7157,28.111,29.6,1
14950549,-0.366,-0.427,-0.061,0.3938,-0.3118,9.7013,28.080,29.6,1
14960556,-0.427,-0.427,-0.061,0.3885,-0.3184,9.6905,28.088,28.6,1
14970568,-0.427,-0.366,-0.061,0.4022,-0.3232,9.6887,28.129,29.6,1
14980574,-0.366,-0.305,-0.061,0.4034,-0.3208,9.7043,28.123,28.6,1
14990579,-0.305,-0.366,-0.061,0.3825,-0.3238,9.7061,28.080,29.6,1
15000579,-0.427,-0.366,-0.061,0.3867,-0.3280,9.6905,28.080,29.6,1
15010586,-0.366,-0.366,-0.122,0.3843,-0.3071,9.7151,28.123,29.6,1
15020592,-0.305,-0.366,-0.061,0.3621,-0.3077,9.6983,28.115,29.6,1
15030602,-0.305,-0.366,-0.122,0.3801,-0.3256,9.6935,28.115,29.6,1
15040602,-0.488,-0.427,-0.061,0.3801,-0.3148,9.7067,28.129,29.6,1
15050607,-0.427,-0.427,0.000,0.3992,-0.3202,9.7276,28.111,28.6,1
15060607,-0.427,-0.305,-0.061,0.3915,-0.3232,9.7163,28.111,29.6,1
15070610,-0.366,-0.366,-0.061,0.3921,-0.3394,9.7217,28.137,29.6,1
15080614,-0.366,-0.427,-0.061,0.3944,-0.3166,9.7312,28.102,29.6,1
15090622,-0.366,-0.427,-0.061,0.3891,-0.2999,9.6881,28.094,29.6,1
15100625,-0.366,-0.366,-0.061,0.3831,-0.3160,9.7025,28.137,29.6,1
15110630,-0.244,-0.366,-0.061,0.3795,-0.3250,9.7366,28.119,29.6,1
15120643,-0.305,-0.305,-0.061,0.3897,-0.3095,9.7109,28.107,29.6,1
15130647,-0.305,-0.305,-0.061,0.3861,-0.3172,9.7121,28.139,29.6,1
15140653,-0.366,-0.366,-0.061,0.4040,-0.3262,9.7360,28.141,29.6,1
15150659,-0.366,-0.427,-0.122,0.3932,-0.3322,9.7169,28.090,29.6,1
15160668,-0.366,-0.427,0.000,0.3921,-0.3029,9.7067,28.154,29.6,1
15170668,-0.427,-0.366,-0.061,0.4016,-0.3095,9.7288,28.104,29.6,1
15180668,-0.366,-0.305,-0.122,0.3980,-0.3065,9.6971,28.104,29.6,1
15190668,-0.244,-0.366,-0.061,0.3992,-0.3041,9.7109,28.107,29.6,1
15200681,-0.366,-0.366,-0.061,0.3903,-0.3250,9.7193,28.117,29.6,1
15210686,-0.366,-0.366,-0.122,0.3609,-0.3041,9.7217,28.057,29.6,1
15220686,-0.244,-0.427,-0.061,0.3998,-0.3370,9.7115,28.123,29.6,1
15230698,-0.305,-0.366,-0.061,0.3992,-0.3196,9.7067,28.117,29.6,1
15240708,-0.305,-0.305,-0.061,0.4076,-0.3178,9.7001,28.117,29.6,1
15250708,-0.305,-0.366,-0.061,0.4076,-0.3208,9.7007,28.107,29.6,1
15260716,-0.366,-0.427,-0.061,0.3962,-0.3202,9.7109,28.107,29.6,1
15270719,-0.427,-0.305,-0.061,0.3891,-0.3029,9.6869,28.131,29.6,1
15280730,-0.366,-0.305,0.000,0.3974,-0.3041,9.7031,28.127,29.6,1
15290732,-0.244,-0.366,0.000,0.4028,-0.3232,9.7217,28.145,29.6,1
15300735,-0.305,-0.427,-0.061,0.3962,-0.3077,9.7031,28.107,29.6,1
15310735,-0.305,-0.366,0.061,0.3950,-0.3172,9.7007,28.104,29.6,1
15320745,-0.366,-0.366,-0.061,0.3974,-0.3232,9.7133,28.121,29.6,1
15330754,-0.427,-0.305,-0.061,0.3915,-0.3017,9.7187,28.129,29.6,1
15340765,-0.366,-0.366,-0.061,0.3926,-0.3154,9.7163,28.090,29.6,1
15350767,-0.305,-0.427,-0.122,0.3932,-0.3124,9.7013,28.090,29.6,1
15360775,-0.305,-0.366,-0.122,0.3938,-0.3268,9.6983,28.125,29.6,1
15370775,-0.183,-0.366,-0.122,0.3831,-0.3100,9.7270,28.117,29.6,1
15380777,-0.366,-0.305,-0.061,0.4100,-0.3095,9.7055,28.115,29.6,1
15390791,-0.366,-0.366,-0.061,0.3873,-0.3041,9.7151,28.125,29.6,1
15400792,-0.366,-0.366,-0.122,0.3843,-0.3286,9.7175,28.123,29.6,1
15410792,-0.366,-0.366,0.000,0.3915,-0.3041,9.7157,28.156,29.6,1
15420806,-0.366,-0.488,-0.061,0.3735,-0.2903,9.6923,28.143,29.6,1
15430820,-0.488,-0.427,-0.061,0.3825,-0.2939,9.7091,28.088,29.6,1
15440826,-0.427,-0.427,0.000,0.4136,-0.3148,9.7252,28.135,29.6,1
15450826,-0.427,-0.366,-0.122,0.3944,-0.3238,9.7330,28.117,29.6,1
15460838,-0.427,-0.366,-0.122,0.4070,-0.3089,9.7306,28.064,29.6,1
15470841,-0.366,-0.366,-0.122,0.4094,-0.3065,9.7223,28.100,29.6,1
15480842,-0.427,-0.427,-0.122,0.4040,-0.3112,9.7055,28.074,29.6,1
15490842,-0.366,-0.427,-0.061,0.3711,-0.3184,9.7211,28.092,29.6,1
15500851,-0.366,-0.427,0.000,0.3861,-0.3184,9.7091,28.117,29.6,1
15510853,-0.305,-0.488,-0.122,0.3855,-0.2921,9.7145,28.094,29.6,1
15520856,-0.366,-0.427,-0.122,0.3885,-0.3095,9.6947,28.092,29.6,1
15530869,-0.366,-0.427,-0.061,0.3861,-0.3106,9.7223,28.092,29.6,1
15540876,-0.305,-0.427,-0.061,0.3986,-0.2999,9.7121,28.105,29.6,1
15550884,-0.244,-0.427,-0.122,0.3771,-0.3196,9.7252,28.145,29.6,1
15560887,-0.366,-0.427,-0.122,0.3974,-0.3095,9.7211,28.125,29.6,1
15570897,-0.427,-0.366,-0.122,0.3783,-0.3190,9.7402,28.121,29.6,1
15580906,-0.305,-0.366,-0.061,0.3932,-0.3202,9.6965,28.113,29.6,1
15590918,-0.366,-0.366,-0.122,0.4058,-0.3077,9.7037,28.121,29.6,1
15600921,-0.366,-0.305,-0.061,0.3819,-0.3011,9.7157,28.146,29.6,1
15610929,-0.366,-0.427,-0.061,0.3885,-0.3112,9.7025,28.145,29.6,1
15620942,-0.366,-0.427,0.000,0.3980,-0.3376,9.7169,28.105,29.6,1
15630945,-0.366,-0.427,0.000,0.3819,-0.3059,9.7264,28.094,29.6,1
15640948,-0.427,-0.366,0.000,0.3956,-0.3460,9.7061,28.117,29.6,1
15650957,-0.427,-0.366,0.000,0.3807,-0.3232,9.7121,28.107,29.6,1
15660963,-0.488,-0.305,-0.061,0.3873,-0.3095,9.7013,28.102,29.6,1
15670963,-0.366,-0.366,-0.183,0.3938,-0.3130,9.7229,28.137,29.6,1
15680975,-0.305,-0.427,-0.122,0.3885,-0.3208,9.7276,28.135,29.6,1
15690975,-0.305,-0.366,-0.061,0.4064,-0.3304,9.7133,28.137,29.6,1
15700985,-0.366,-0.305,-0.061,0.3897,-0.3256,9.7193,28.141,29.6,1
15710994,-0.305,-0.427,-0.061,0.3741,-0.3334,9.7235,28.141,29.6,1
15720997,-0.366,-0.427,-0.122,0.3801,-0.3400,9.7223,28.145,29.6,1
15731009,-0.366,-0.427,0.000,0.3759,-0.3406,9.7211,28.145,29.6,1
15741009,-0.305,-0.427,-0.061,0.3944,-0.3136,9.7133,28.119,29.6,1
15751025,-0.366,-0.366,-0.061,0.3759,-0.3256,9.7115,28.111,29.6,1
15761030,-0.366,-0.366,-0.122,0.3807,-0.3112,9.7336,28.094,29.6,1
15771045,-0.427,-0.427,-0.061,0.4070,-0.3178,9.7139,28.111,29.6,1
15781057,-0.427,-0.366,0.000,0.4058,-0.3065,9.7091,28.121,29.6,1
15791070,-0.244,-0.427,0.000,0.4010,-0.3130,9.7133,28.131,29.6,1
15801072,-0.305,-0.427,0.000,0.3783,-0.3250,9.7109,28.125,29.6,1
15811080,-0.427,-0.366,0.061,0.3813,-0.3035,9.6983,28.158,29.6,1
15821091,-0.305,-0.366,-0.061,0.3950,-0.3220,9.7049,28.115,29.6,1
15831095,-0.305,-0.366,-0.061,0.3944,-0.3364,9.6935,28.164,29.6,1
15841106,-0.366,-0.366,-0.061,0.3777,-0.3130,9.7061,28.088,29.6,1
15851110,-0.366,-0.366,-0.122,0.3777,-0.2987,9.7235,28.096,29.6,1
15861121,-0.427,-0.366,-0.122,0.3950,-0.3041,9.6869,28.146,29.6,1
15871133,-0.305,-0.366,-0.061,0.3986,-0.3394,9.6977,28.137,29.6,1
15881146,-0.244,-0.427,0.000,0.3909,-0.3112,9.7336,28.141,29.6,1
15891159,-0.366,-0.366,-0.061,0.3879,-0.3154,9.7193,28.141,29.6,1
15901161,-0.366,-0.366,-0.061,0.3932,-0.3124,9.7223,28.131,29.6,1
15911161,-0.244,-0.427,-0.122,0.3855,-0.3232,9.7073,28.109,29.6,1
15921163,-0.366,-0.427,-0.061,0.3968,-0.3112,9.6756,28.125,29.6,1
15931177,-0.366,-0.427,0.000,0.4022,-0.3124,9.7043,28.102,29.6,1
15941191,-0.305,-0.427,0.000,0.3867,-0.3370,9.7067,28.131,29.6,1
15951198,-0.366,-0.305,-0.122,0.3831,-0.3184,9.7115,28.145,29.6,1
15961209,-0.366,-0.366,-0.122,0.3938,-0.3160,9.6935,28.109,29.6,1
15971209,-0.427,-0.366,-0.061,0.4004,-0.3112,9.6851,28.107,29.6,1
15981209,-0.244,-0.366,-0.122,0.3897,-0.3130,9.7049,28.094,29.6,1
15991223,-0.305,-0.366,-0.122,0.3717,-0.3106,9.7175,28.092,29.6,1
16001232,-0.366,-0.366,0.000,0.3855,-0.3208,9.6881,28.104,29.6,1
16011232,-0.366,-0.427,0.000,0.3968,-0.3166,9.7049,28.119,29.6,1
16021232,-0.427,-0.427,-0.122,0.3813,-0.3172,9.6983,28.104,29.6,1
16031232,-0.366,-0.366,-0.122,0.3986,-0.3124,9.7145,28.168,29.6,1
16041232,-0.488,-0.366,-0.061,0.3992,-0.3178,9.7264,28.125,29.6,1
16051243,-0.427,-0.488,-0.061,0.4052,-0.3262,9.7211,28.121,29.6,1
16061255,-0.305,-0.366,-0.061,0.3867,-0.3124,9.7151,28.121,29.6,1
16071255,-0.305,-0.366,0.000,0.3807,-0.3214,9.7127,28.119,29.6,1
16081255,-0.366,-0.427,0.000,0.3861,-0.3190,9.7085,28.107,29.6,1
16091262,-0.305,-0.427,0.000,0.3837,-0.3136,9.7091,28.107,29.6,1
16101270,-0.366,-0.305,0.000,0.3885,-0.3208,9.6989,28.129,29.6,1
16111283,-0.366,-0.366,-0.122,0.3819,-0.3023,9.7270,28.102,29.6,1
16121293,-0.366,-0.305,-0.122,0.3974,-0.3041,9.7175,28.105,29.6,1
16131293,-0.305,-0.366,-0.122,0.4070,-0.3292,9.7007,28.109,29.6,1
16141300,-0.366,-0.305,-0.061,0.3813,-0.3071,9.7187,28.068,29.6,1
16151308,-0.427,-0.305,-0.061,0.3825,-0.3059,9.7312,28.129,29.6,1
16161313,-0.244,-0.427,0.000,0.3771,-0.3280,9.7169,28.105,29.6,1
16171313,-0.305,-0.427,0.000,0.3903,-0.3226,9.7001,28.107,29.6,1
16181314,-0.427,-0.366,0.000,0.3992,-0.3148,9.6911,28.139,29.6,1
16191323,-0.366,-0.366,-0.061,0.3885,-0.3292,9.7019,28.123,29.6,1
16201334,-0.427,-0.427,-0.122,0.4016,-0.3196,9.7187,28.127,29.6,1
16211346,-0.366,-0.488,-0.061,0.4034,-0.3118,9.7175,28.139,29.6,1
16221346,-0.366,-0.427,-0.122,0.3915,-0.3065,9.7139,28.102,29.6,1
16231349,-0.366,-0.305,-0.061,0.3956,-0.2969,9.7276,28.117,29.6,1
16241349,-0.366,-0.366,-0.122,0.3849,-0.3238,9.7193,28.117,29.6,1
16251361,-0.305,-0.366,-0.122,0.4064,-0.3059,9.7163,28.150,29.6,1
16261361,-0.427,-0.366,-0.122,0.4082,-0.3142,9.7037,28.084,29.6,1
16271361,-0.366,-0.305,-0.061,0.3897,-0.3142,9.6935,28.172,29.6,1
16281361,-0.427,-0.366,-0.122,0.3968,-0.3083,9.7073,28.098,29.6,1
16291361,-0.366,-0.305,-0.122,0.4082,-0.3112,9.7151,28.131,29.6,1
16301361,-0.366,-0.366,-0.061,0.3897,-0.3274,9.7139,28.133,29.6,1
16311365,-0.427,-0.427,-0.061,0.3873,-0.3100,9.7187,28.113,29.6,1
16321375,-0.366,-0.366,-0.061,0.4094,-0.3017,9.7223,28.117,29.6,1
16331377,-0.427,-0.366,0.000,0.3932,-0.3077,9.7073,28.119,29.6,1
16341380,-0.305,-0.366,0.000,0.3831,-0.3160,9.7103,28.074,29.6,1
16351384,-0.305,-0.427,-0.061,0.3962,-0.3089,9.7085,28.088,29.6,1
16361390,-0.305,-0.305,-0.061,0.3843,-0.3053,9.7019,28.129,29.6,1
16371399,-0.366,-0.305,-0.061,0.3873,-0.3262,9.7055,28.094,29.6,1
16381405,-0.366,-0.305,-0.061,0.3921,-0.3244,9.7133,28.131,29.6,1
16391410,-0.305,-0.366,-0.122,0.3926,-0.3202,9.7330,28.139,29.6,1
16401422,-0.427,-0.427,-0.061,0.3879,-0.3166,9.7276,28.107,29.6,1
16411435,-0.366,-0.427,-0.061,0.3956,-0.3136,9.7085,28.139,29.6,1
16421435,-0.366,-0.366,-0.122,0.4010,-0.3220,9.7390,28.139,29.6,1
16431441,-0.305,-0.427,-0.061,0.3950,-0.3298,9.6822,28.076,29.6,1
16441445,-0.305,-0.427,0.000,0.3921,-0.3089,9.7031,28.094,29.6,1
16451456,-0.305,-0.366,-0.061,0.3938,-0.3118,9.7067,28.172,29.6,1
16461460,-0.305,-0.427,-0.183,0.3843,-0.3358,9.7300,28.117,29.6,1
16471460,-0.366,-0.366,-0.122,0.3735,-0.2999,9.7127,28.119,29.6,1
16481468,-0.366,-0.427,0.000,0.3932,-0.2897,9.7013,28.152,29.6,1
16491481,-0.305,-0.427,-0.061,0.4016,-0.2963,9.7115,28.141,29.6,1
16501483,-0.305,-0.366,-0.061,0.3926,-0.3118,9.6905,28.109,29.6,1
16511491,-0.366,-0.366,0.061,0.3771,-0.3142,9.7169,28.070,29.6,1
16521491,-0.366,-0.305,-0.061,0.3789,-0.3065,9.7145,28.104,29.6,1
16531502,-0.427,-0.427,-0.122,0.4004,-0.3220,9.7061,28.139,29.6,1
16541521,-0.427,-0.427,-0.061,0.3861,-0.3214,9.7229,28.100,29.6,1
16551525,-0.427,-0.366,0.000,0.3873,-0.3178,9.7145,28.139,29.6,1
16561534,-0.427,-0.366,-0.061,0.3992,-0.2987,9.7019,28.094,29.6,1
16571547,-0.427,-0.366,0.000,0.3968,-0.3065,9.7067,28.121,29.6,1
16581559,-0.366,-0.305,-0.061,0.3753,-0.3232,9.7252,28.113,29.6,1
16591571,-0.366,-0.366,-0.061,0.3921,-0.3286,9.7049,28.068,29.6,1
16601584,-0.366,-0.427,-0.061,0.4082,-0.3041,9.7157,28.068,29.6,1
16611592,-0.366,-0.366,-0.061,0.4040,-0.3005,9.6935,28.088,29.6,1
16621598,-0.305,-0.305,0.061,0.4016,-0.3220,9.6744,28.074,29.6,1
16631598,-0.305,-0.366,0.000,0.4046,-0.3316,9.7085,28.066,29.6,1
16641607,-0.305,-0.427,-0.061,0.3968,-0.3232,9.6893,28.131,29.6,1
16651617,-0.244,-0.427,-0.061,0.3926,-0.3071,9.7133,28.115,29.6,1
16661628,-0.244,-0.427,-0.122,0.3807,-0.3208,9.7139,28.150,29.6,1
16671640,-0.366,-0.427,-0.061,0.3771,-0.3118,9.7019,28.109,29.6,1
16681640,-0.366,-0.305,0.000,0.4064,-0.3268,9.7157,28.123,29.6,1
16691647,-0.305,-0.305,-0.061,0.3956,-0.3238,9.7091,28.121,29.6,1
16701653,-0.366,-0.305,0.000,0.3897,-0.3166,9.7043,28.104,29.6,1
16711655,-0.305,-0.244,0.000,0.3891,-0.3047,9.7187,28.111,29.6,1
16721659,-0.427,-0.427,-0.061,0.3998,-0.3142,9.7109,28.154,29.6,1
16731668,-0.427,-0.366,0.000,0.3855,-0.2987,9.7103,28.139,29.6,1
16741674,-0.366,-0.366,-0.183,0.3944,-0.3160,9.6792,28.123,29.6,1
16751678,-0.244,-0.366,-0.061,0.3986,-0.3106,9.7115,28.129,29.6,1
16761683,-0.305,-0.366,0.000,0.3921,-0.3214,9.7294,28.109,29.6,1
16771686,-0.366,-0.366,-0.061,0.3921,-0.3083,9.7097,28.109,29.6,1
16781690,-0.366,-0.427,-0.122,0.3944,-0.3017,9.6995,28.139,29.6,1
16791705,-0.244,-0.427,-0.061,0.3962,-0.3154,9.7073,28.104,29.6,1
16801705,-0.305,-0.366,-0.122,0.3831,-0.3256,9.7300,28.111,29.6,1
16811705,-0.305,-0.366,0.000,0.4202,-0.3220,9.7187,28.123,29.6,1
16821705,-0.244,-0.427,0.000,0.4052,-0.3232,9.7139,28.141,29.6,1
16831705,-0.305,-0.427,-0.061,0.3956,-0.3196,9.6935,28.102,29.6,1
16841719,-0.305,-0.427,-0.061,0.3861,-0.3083,9.7049,28.068,29.6,1
16851731,-0.305,-0.427,-0.061,0.3891,-0.3160,9.7145,28.121,29.6,1
16861739,-0.366,-0.366,0.000,0.4082,-0.3232,9.6971,28.121,29.6,1
16871747,-0.366,-0.366,-0.061,0.4004,-0.3047,9.7103,28.152,29.6,1
16881760,-0.366,-0.366,0.000,0.3915,-0.3083,9.6935,28.109,29.6,1
16891762,-0.366,-0.366,-0.122,0.3837,-0.3262,9.7031,28.178,29.6,1
16901766,-0.366,-0.305,-0.061,0.3986,-0.3005,9.7223,28.137,29.6,1
16911779,-0.305,-0.366,-0.061,0.3915,-0.3238,9.7145,28.104,29.6,1
16921792,-0.305,-0.366,-0.122,0.3825,-0.2945,9.7187,28.119,29.6,1
16931805,-0.366,-0.427,-0.122,0.3891,-0.3071,9.7175,28.148,29.6,1
16941811,-0.305,-0.366,-0.061,0.3897,-0.3190,9.7115,28.145,29.6,1
16951823,-0.305,-0.427,-0.061,0.3921,-0.3053,9.7019,28.145,29.6,1
16961830,-0.366,-0.488,-0.061,0.3903,-0.2999,9.6959,28.146,29.6,1
16971843,-0.305,-0.427,-0.061,0.3944,-0.2987,9.7348,28.100,29.6,1
16981851,-0.366,-0.366,-0.061,0.3998,-0.2999,9.7121,28.090,29.6,1
16991851,-0.366,-0.488,-0.061,0.3819,-0.3280,9.7061,28.107,29.6,1
17001860,-0.244,-0.366,-0.061,0.4028,-0.3148,9.6935,28.162,29.6,1
17011872,-0.305,-0.366,-0.061,0.3998,-0.3095,9.7031,28.121,29.6,1
17021884,-0.366,-0.366,0.000,0.4046,-0.2921,9.7270,28.145,29.6,1
17031884,-0.305,-0.305,-0.061,0.3974,-0.3095,9.7013,28.107,29.6,1
17041884,-0.305,-0.427,-0.061,0.3909,-0.3077,9.6869,28.176,29.6,1
17051897,-0.244,-0.427,0.000,0.3879,-0.3100,9.6965,28.096,29.6,1
17061904,-0.366,-0.305,-0.061,0.3825,-0.3035,9.6887,28.102,29.6,1
17071906,-0.305,-0.305,-0.122,0.3831,-0.3250,9.7145,28.082,29.6,1
17081914,-0.305,-0.366,-0.122,0.3855,-0.3148,9.7163,28.115,29.6,1
17091914,-0.366,-0.244,0.000,0.3897,-0.3166,9.7091,28.082,29.6,1
17101914,-0.427,-0.305,-0.061,0.3849,-0.3184,9.7235,28.107,29.6,1
17111914,-0.427,-0.305,-0.061,0.3849,-0.3106,9.7336,28.088,29.6,1
17121914,-0.366,-0.427,-0.061,0.3759,-0.3304,9.7151,28.107,29.6,1
17131928,-0.427,-0.427,0.000,0.3837,-0.3280,9.7181,28.107,29.6,1
17141937,-0.244,-0.427,-0.061,0.3867,-0.3154,9.7288,28.090,29.6,1
17151937,-0.366,-0.366,-0.061,0.3801,-0.2945,9.7007,28.109,29.6,1
17161945,-0.427,-0.366,-0.061,0.3909,-0.3178,9.7294,28.090,29.6,1
17171958,-0.366,-0.366,-0.122,0.3861,-0.3160,9.6959,28.131,29.6,1
17181967,-0.366,-0.366,0.000,0.3909,-0.3083,9.6917,28.121,29.6,1
17191975,-0.366,-0.427,-0.061,0.4010,-0.3154,9.6899,28.102,29.6,1
17201982,-0.366,-0.427,-0.122,0.3950,-0.3238,9.7187,28.100,29.6,1
17211994,-0.366,-0.366,-0.122,0.3771,-0.3166,9.7145,28.121,29.6,1
17221995,-0.366,-0.427,0.000,0.4022,-0.3304,9.6989,28.115,29.6,1
17232003,-0.244,-0.427,-0.061,0.4046,-0.3160,9.7181,28.125,29.6,1
17242006,-0.427,-0.305,-0.061,0.3998,-0.3130,9.7019,28.092,29.6,1
17252013,-0.427,-0.427,-0.122,0.3807,-0.3142,9.7258,28.062,29.6,1
17262024,-0.366,-0.488,-0.061,0.3992,-0.3059,9.6881,28.100,29.6,1
17272029,-0.305,-0.366,0.000,0.3962,-0.3053,9.7127,28.123,29.6,1
17282042,-0.305,-0.427,-0.061,0.3909,-0.3095,9.7067,28.137,29.6,1
17292049,-0.366,-0.427,-0.061,0.3950,-0.3292,9.7031,28.088,29.6,1
17302054,-0.366,-0.427,-0.061,0.3932,-0.3089,9.7067,28.117,29.6,1
17312057,-0.366,-0.427,0.000,0.4010,-0.3160,9.7121,28.117,29.6,1
17322057,-0.366,-0.427,-0.061,0.3855,-0.3220,9.7336,28.156,29.6,1
17332070,-0.427,-0.366,-0.183,0.3986,-0.3059,9.7133,28.129,29.6,1
17342070,-0.427,-0.427,-0.061,0.3897,-0.3065,9.7169,28.096,29.6,1
17352072,-0.305,-0.427,-0.061,0.3675,-0.3059,9.6965,28.154,29.6,1
17362072,-0.305,-0.366,-0.061,0.3741,-0.3118,9.7025,28.113,29.6,1
17372072,-0.366,-0.366,-0.122,0.3825,-0.3298,9.6995,28.131,29.6,1
17382080,-0.305,-0.427,-0.122,0.4010,-0.3292,9.7061,28.121,29.6,1
17392091,-0.366,-0.366,-0.061,0.4034,-0.3316,9.6947,28.105,29.6,1
17402095,-0.427,-0.366,0.000,0.4052,-0.3298,9.6959,28.096,29.6,1
17412106,-0.427,-0.305,-0.061,0.3765,-0.3388,9.7241,28.100,29.6,1
17422110,-0.305,-0.366,-0.061,0.3759,-0.3406,9.7037,28.092,29.6,1
17432115,-0.366,-0.427,-0.122,0.3956,-0.3382,9.6965,28.094,29.6,1
17442125,-0.366,-0.366,-0.061,0.3974,-0.3298,9.7294,28.111,29.6,1
17452136,-0.366,-0.305,-0.061,0.3932,-0.3089,9.7282,28.076,29.6,1
17462146,-0.366,-0.366,0.000,0.3956,-0.3148,9.7097,28.072,29.6,1
17472148,-0.488,-0.366,-0.061,0.3968,-0.3202,9.7025,28.100,29.6,1
17482152,-0.427,-0.427,-0.061,0.4136,-0.3250,9.7067,28.100,29.6,1
17492163,-0.366,-0.427,-0.061,0.3992,-0.3310,9.6887,28.076,29.6,1
17502163,-0.427,-0.366,0.000,0.3849,-0.3112,9.7055,28.146,29.6,1
17512163,-0.427,-0.305,0.061,0.3891,-0.3178,9.7007,28.115,29.6,1
17522166,-0.427,-0.366,-0.061,0.3849,-0.3394,9.6899,28.121,29.6,1
17532167,-0.427,-0.366,-0.061,0.3711,-0.3340,9.7187,28.105,29.6,1
17542179,-0.305,-0.366,-0.061,0.4004,-0.3106,9.7312,28.129,29.6,1
17552182,-0.244,-0.366,-0.122,0.3777,-0.3172,9.7115,28.117,29.6,1
17562182,-0.366,-0.366,-0.061,0.3831,-0.3232,9.7223,28.107,29.6,1
17572182,-0.488,-0.366,0.061,0.3885,-0.3244,9.7336,28.092,29.6,1
17582192,-0.366,-0.427,-0.061,0.3968,-0.3208,9.7061,28.104,29.6,1
17592199,-0.366,-0.305,0.000,0.3723,-0.3196,9.7181,28.125,29.6,1
17602209,-0.366,-0.366,-0.061,0.3627,-0.3346,9.6941,28.139,29.6,1
17612217,-0.305,-0.366,-0.061,0.3944,-0.3286,9.7001,28.107,29.6,1
17622229,-0.366,-0.427,-0.061,0.3915,-0.3418,9.7270,28.123,29.6,1
17632243,-0.305,-0.427,-0.061,0.3723,-0.3130,9.7456,28.107,29.6,1
17642255,-0.366,-0.366,-0.122,0.3771,-0.3196,9.7127,28.141,29.6,1
17652255,-0.305,-0.366,-0.061,0.3741,-0.3130,9.7031,28.109,29.6,1
17662255,-0.366,-0.366,-0.122,0.3831,-0.3292,9.6947,28.109,29.6,1
17672268,-0.305,-0.427,-0.061,0.3968,-0.3280,9.7085,28.086,29.6,1
17682270,-0.366,-0.427,-0.122,0.3998,-0.3089,9.7163,28.105,29.6,1
17692277,-0.366,-0.366,-0.122,0.3968,-0.3220,9.7169,28.096,29.6,1
17702277,-0.366,-0.366,0.000,0.4088,-0.3148,9.6911,28.055,29.6,1
17712285,-0.305,-0.366,0.000,0.3944,-0.3244,9.7013,28.107,29.6,1
17722293,-0.366,-0.305,0.000,0.3879,-0.3136,9.7169,28.117,29.6,1
17732300,-0.305,-0.366,-0.061,0.3998,-0.3100,9.7085,28.092,29.6,1
17742300,-0.305,-0.427,-0.061,0.3950,-0.3083,9.7306,28.152,29.6,1
17752308,-0.305,-0.427,-0.061,0.3831,-0.3298,9.7342,28.115,29.6,1
17762319,-0.305,-0.305,-0.061,0.3909,-0.3178,9.7109,28.119,29.6,1
17772319,-0.366,-0.366,0.000,0.3932,-0.3130,9.7187,28.133,29.6,1
17782319,-0.427,-0.366,-0.122,0.3789,-0.3208,9.7121,28.078,29.6,1
17792319,-0.366,-0.305,0.000,0.3903,-0.3184,9.7187,28.117,29.6,1
17802319,-0.305,-0.366,-0.061,0.4064,-0.3047,9.7037,28.150,29.6,1
17812319,-0.366,-0.366,-0.061,0.3992,-0.3352,9.6971,28.092,29.6,1
17822329,-0.366,-0.366,-0.061,0.3747,-0.3190,9.7085,28.062,29.6,1
17832335,-0.366,-0.366,0.000,0.3705,-0.3041,9.7055,28.074,29.6,1
17842348,-0.366,-0.366,-0.061,0.4124,-0.3106,9.7031,28.074,29.6,1
17852354,-0.427,-0.366,-0.061,0.3968,-0.3328,9.7013,28.131,29.6,1
17862361,-0.427,-0.366,-0.061,0.3711,-0.3190,9.7169,28.096,29.6,1
17872375,-0.427,-0.427,0.061,0.3777,-0.3124,9.7061,28.105,29.6,1
17882376,-0.366,-0.427,-0.061,0.4040,-0.2987,9.7606,28.125,29.6,1
17892380,-0.366,-0.366,-0.122,0.4070,-0.3310,9.7235,28.100,29.6,1
17902392,-0.366,-0.305,0.000,0.3825,-0.3184,9.7019,28.113,29.6,1
17912398,-0.427,-0.305,-0.061,0.3873,-0.3100,9.7264,28.133,29.6,1
17922399,-0.427,-0.366,-0.122,0.3861,-0.3124,9.7342,28.092,29.6,1
17932411,-0.427,-0.427,0.000,0.4082,-0.3232,9.7354,28.107,29.6,1
17942422,-0.244,-0.366,-0.061,0.4034,-0.3136,9.6983,28.127,29.6,1
17952422,-0.366,-0.427,-0.122,0.3879,-0.3148,9.7007,28.100,29.6,1
17962422,-0.427,-0.366,-0.122,0.3926,-0.2987,9.7055,28.098,29.6,1
17972436,-0.366,-0.366,-0.061,0.4154,-0.3334,9.6983,28.127,29.6,1
17982445,-0.366,-0.366,-0.122,0.3998,-0.3328,9.6899,28.072,29.6,1
17992445,-0.366,-0.366,-0.061,0.3657,-0.2951,9.7085,28.098,29.6,1
18002456,-0.305,-0.366,-0.122,0.3711,-0.2951,9.7145,28.133,29.6,1
18012457,-0.366,-0.366,-0.061,0.4058,-0.3095,9.7205,28.133,29.6,1
18022468,-0.305,-0.366,-0.122,0.4016,-0.3059,9.7073,28.090,29.6,1
18032472,-0.366,-0.366,-0.061,0.3825,-0.3190,9.6798,28.074,29.6,1
18042483,-0.366,-0.366,0.000,0.3903,-0.3202,9.6810,28.121,29.6,1
18052491,-0.305,-0.366,-0.122,0.3926,-0.3244,9.6983,28.164,29.6,1
18062491,-0.305,-0.366,-0.122,0.3873,-0.3232,9.7151,28.104,29.6,1
18072503,-0.427,-0.305,-0.061,0.3819,-0.3017,9.7246,28.105,29.6,1
18082521,-0.366,-0.366,-0.061,0.3968,-0.3172,9.7049,28.086,29.6,1
18092534,-0.244,-0.427,0.000,0.4082,-0.3322,9.7025,28.133,29.6,1
18102534,-0.305,-0.366,-0.183,0.3897,-0.3130,9.7127,28.080,29.6,1
18112536,-0.305,-0.427,-0.122,0.3926,-0.3172,9.7025,28.135,29.6,1
18122546,-0.366,-0.366,0.000,0.3962,-0.3130,9.6935,28.125,29.6,1
18132549,-0.305,-0.427,0.000,0.3825,-0.3400,9.7085,28.141,29.6,1
18142562,-0.366,-0.427,0.000,0.3783,-0.3106,9.7025,28.178,29.6,1
18152564,-0.427,-0.366,-0.122,0.4052,-0.3005,9.7073,28.109,29.6,1
18162564,-0.366,-0.427,-0.122,0.3944,-0.3100,9.7019,28.078,29.6,1
18172574,-0.366,-0.305,0.000,0.3837,-0.3005,9.7163,28.125,29.6,1
18182586,-0.366,-0.305,-0.061,0.3801,-0.3298,9.7121,28.111,29.6,1
18192598,-0.366,-0.366,-0.122,0.3926,-0.3316,9.6977,28.111,29.6,1
18202605,-0.427,-0.427,-0.061,0.4046,-0.3262,9.7246,28.117,29.6,1
18212610,-0.305,-0.366,0.000,0.4022,-0.3340,9.7091,28.119,29.6,1
18222617,-0.366,-0.427,0.000,0.3903,-0.3202,9.6977,28.131,29.6,1
18232629,-0.427,-0.366,0.000,0.3921,-0.3148,9.6899,28.145,29.6,1
18242630,-0.366,-0.305,-0.061,0.3897,-0.3142,9.6965,28.119,29.6,1
18252632,-0.305,-0.427,-0.061,0.3980,-0.3148,9.7019,28.164,29.6,1
18262638,-0.305,-0.427,-0.061,0.3819,-0.3041,9.6995,28.123,29.6,1
18272644,-0.366,-0.366,-0.122,0.3843,-0.3142,9.7163,28.123,29.6,1
18282645,-0.427,-0.366,-0.061,0.3849,-0.3095,9.7223,28.096,29.6,1
18292658,-0.366,-0.366,-0.122,0.3705,-0.3065,9.7121,28.119,29.6,1
18302659,-0.305,-0.366,-0.061,0.3717,-0.3112,9.7306,28.105,29.6,1
18312671,-0.244,-0.366,0.000,0.3897,-0.3100,9.7169,28.121,29.6,1
18322674,-0.427,-0.366,-0.061,0.4082,-0.3280,9.7055,28.098,29.6,1
18332678,-0.366,-0.366,-0.122,0.4082,-0.3202,9.7043,28.135,29.6,1
18342686,-0.244,-0.427,-0.122,0.3789,-0.3059,9.6983,28.133,29.6,1
18352691,-0.366,-0.427,-0.061,0.3867,-0.3100,9.7043,28.125,29.6,1
18362705,-0.366,-0.427,-0.061,0.3861,-0.3047,9.7085,28.074,29.6,1
18372705,-0.305,-0.366,-0.183,0.3921,-0.3358,9.7043,28.074,29.6,1
18382714,-0.366,-0.366,0.000,0.3735,-0.3077,9.7241,28.123,29.6,1
18392727,-0.305,-0.305,0.000,0.3861,-0.3047,9.7241,28.107,29.6,1
18402731,-0.366,-0.366,-0.061,0.4040,-0.3226,9.7019,28.117,29.6,1
18412731,-0.366,-0.305,0.000,0.3825,-0.3268,9.6977,28.082,29.6,1
18422739,-0.305,-0.366,0.000,0.3932,-0.3262,9.7127,28.152,29.6,1
18432739,-0.305,-0.427,-0.122,0.3974,-0.3196,9.7151,28.096,29.6,1
18442750,-0.305,-0.427,0.000,0.4010,-0.3130,9.6935,28.127,29.6,1
18452762,-0.366,-0.366,0.000,0.3950,-0.3190,9.7037,28.076,29.6,1
18462762,-0.366,-0.366,0.000,0.3795,-0.2867,9.7157,28.104,29.6,1
18472762,-0.366,-0.366,-0.061,0.3843,-0.3047,9.7342,28.141,29.6,1
18482769,-0.366,-0.488,-0.122,0.3956,-0.3190,9.7073,28.102,29.6,1
18492775,-0.366,-0.427,-0.061,0.3956,-0.3095,9.6816,28.100,29.6,1
18502777,-0.366,-0.366,-0.061,0.3873,-0.3130,9.7151,28.172,29.6,1
18512790,-0.366,-0.366,-0.122,0.3825,-0.3262,9.7252,28.107,29.6,1
18522795,-0.366,-0.366,-0.061,0.3783,-0.3166,9.6995,28.129,29.6,1
18532796,-0.427,-0.427,-0.061,0.4022,-0.2999,9.7121,28.088,29.6,1
18542797,-0.366,-0.366,-0.122,0.3855,-0.3172,9.7300,28.119,29.6,1
18552808,-0.427,-0.366,-0.061,0.3909,-0.2975,9.7031,28.119,29.6,1
18562820,-0.427,-0.366,-0.061,0.3921,-0.3172,9.6995,28.100,29.6,1
18572821,-0.366,-0.366,-0.061,0.3879,-0.3328,9.7085,28.078,29.6,1
18582821,-0.366,-0.427,-0.122,0.3723,-0.3334,9.7103,28.129,29.6,1
18592823,-0.305,-0.427,-0.122,0.3968,-0.2897,9.7133,28.074,29.6,1
18602823,-0.305,-0.366,-0.061,0.3849,-0.3047,9.7037,28.076,29.6,1
18612836,-0.488,-0.366,-0.122,0.3986,-0.3160,9.7091,28.076,29.6,1
18622836,-0.366,-0.305,-0.061,0.3956,-0.2933,9.7151,28.143,29.6,1
18632845,-0.305,-0.427,-0.061,0.3843,-0.2981,9.7073,28.139,29.6,1
18642853,-0.366,-0.427,0.000,0.3843,-0.3017,9.6720,28.098,29.6,1
18652853,-0.305,-0.427,-0.061,0.3873,-0.3106,9.7007,28.092,29.6,1
18662853,-0.366,-0.366,-0.183,0.3789,-0.3124,9.7264,28.150,29.6,1
18672866,-0.366,-0.427,-0.061,0.3909,-0.3118,9.7061,28.146,29.6,1
18682872,-0.366,-0.366,0.000,0.3956,-0.3244,9.7019,28.107,29.6,1
18692872,-0.305,-0.366,-0.061,0.3915,-0.3220,9.6971,28.121,29.6,1
18702873,-0.305,-0.427,-0.061,0.3849,-0.3166,9.7300,28.176,29.6,1
18712884,-0.244,-0.427,-0.122,0.3932,-0.3178,9.7378,28.141,29.6,1
18722897,-0.366,-0.427,-0.061,0.4022,-0.3208,9.7031,28.141,29.6,1
18732899,-0.427,-0.366,-0.061,0.4004,-0.3238,9.7211,28.111,29.6,1
18742899,-0.366,-0.427,-0.061,0.3765,-0.2999,9.7270,28.148,29.6,1
18752902,-0.427,-0.366,-0.061,0.3711,-0.3118,9.7252,28.146,29.6,1
18762903,-0.366,-0.305,-0.122,0.3950,-0.3238,9.7300,28.076,29.6,1
18772903,-0.305,-0.305,-0.122,0.3897,-0.3118,9.6905,28.150,29.6,1
18782909,-0.366,-0.366,-0.061,0.3771,-0.3196,9.7175,28.098,29.6,1
18792918,-0.366,-0.427,-0.061,0.3837,-0.3106,9.7300,28.141,29.6,1
18802927,-0.305,-0.427,-0.061,0.3932,-0.3148,9.6905,28.111,29.6,1
18812940,-0.366,-0.427,0.000,0.3873,-0.3190,9.7127,28.121,29.6,1
18822945,-0.366,-0.427,0.000,0.3921,-0.3089,9.7288,28.145,29.6,1
18832958,-0.366,-0.427,-0.122,0.3986,-0.3130,9.7091,28.162,29.6,1
18842963,-0.305,-0.366,-0.061,0.4028,-0.3172,9.6995,28.141,29.6,1
18852975,-0.366,-0.427,-0.061,0.3867,-0.3100,9.6887,28.139,29.6,1
18862982,-0.427,-0.427,-0.061,0.3956,-0.3190,9.7205,28.145,29.6,1
18872994,-0.305,-0.366,0.000,0.4082,-0.3041,9.7139,28.121,29.6,1
18882997,-0.305,-0.427,-0.061,0.3998,-0.3136,9.6983,28.080,29.6,1
18893006,-0.427,-0.366,-0.061,0.3747,-0.3172,9.7181,28.098,29.6,1
18903013,-0.305,-0.427,-0.061,0.3771,-0.3077,9.7205,28.098,29.6,1
18913024,-0.366,-0.427,-0.061,0.3944,-0.3053,9.7139,28.150,29.6,1
18923034,-0.366,-0.366,0.000,0.3986,-0.3196,9.6977,28.098,29.6,1
18933039,-0.305,-0.305,-0.061,0.3765,-0.3292,9.7115,28.100,29.6,1
18943039,-0.244,-0.366,-0.122,0.3801,-0.3029,9.7085,28.164,29.6,1
18953049,-0.427,-0.427,-0.061,0.3849,-0.3112,9.7061,28.141,29.6,1
18963057,-0.366,-0.427,-0.061,0.3801,-0.3328,9.6983,28.070,29.6,1
18973060,-0.305,-0.305,-0.061,0.3915,-0.3041,9.6869,28.070,29.6,1
18983070,-0.366,-0.366,0.000,0.3861,-0.2987,9.6959,28.080,29.6,1
18993072,-0.427,-0.305,-0.122,0.3735,-0.3214,9.7426,28.119,29.6,1
19003072,-0.366,-0.427,-0.122,0.3891,-0.3352,9.6875,28.072,29.6,1
19013072,-0.305,-0.427,-0.061,0.3765,-0.3136,9.7264,28.109,29.6,1
19023075,-0.305,-0.366,0.000,0.3759,-0.3154,9.7187,28.137,29.6,1
19033076,-0.427,-0.305,-0.061,0.4004,-0.3376,9.7037,28.135,29.6,1
19043080,-0.427,-0.427,-0.061,0.3962,-0.3089,9.7007,28.131,29.6,1
19053085,-0.366,-0.427,-0.183,0.3831,-0.3172,9.7097,28.133,29.6,1
19063098,-0.305,-0.366,-0.183,0.3711,-0.3256,9.7037,28.100,29.6,1
19073100,-0.366,-0.366,-0.122,0.3687,-0.3083,9.6923,28.119,29.6,1
19083105,-0.244,-0.366,-0.061,0.3747,-0.3095,9.6953,28.119,29.6,1
19093106,-0.305,-0.427,-0.061,0.3974,-0.3023,9.7013,28.146,29.6,1
19103107,-0.366,-0.366,-0.061,0.3950,-0.3286,9.7055,28.090,29.6,1
19113121,-0.244,-0.427,-0.061,0.3801,-0.3304,9.6941,28.100,29.6,1
19123133,-0.305,-0.427,-0.122,0.3849,-0.3208,9.6929,28.121,29.6,1
19133146,-0.427,-0.305,0.000,0.4082,-0.3124,9.7157,28.160,29.6,1
19143148,-0.366,-0.305,-0.061,0.3962,-0.3130,9.7115,28.135,29.6,1
19153148,-0.366,-0.366,-0.061,0.3765,-0.3244,9.7007,28.109,29.6,1
19163152,-0.427,-0.488,-0.061,0.3693,-0.3136,9.7103,28.119,29.6,1
19173152,-0.427,-0.427,-0.061,0.3819,-0.3250,9.7258,28.096,29.6,1
19183153,-0.244,-0.305,-0.122,0.3998,-0.3220,9.7133,28.115,29.6,1
19193163,-0.366,-0.366,0.000,0.3885,-0.3136,9.7085,28.127,29.6,1
19203163,-0.244,-0.427,0.000,0.3998,-0.3083,9.7019,28.127,29.6,1
19213171,-0.366,-0.366,-0.122,0.3938,-0.3340,9.7103,28.158,29.6,1
19223176,-0.427,-0.366,-0.061,0.3903,-0.3196,9.7109,28.125,29.6,1
19233179,-0.366,-0.366,0.000,0.3873,-0.3214,9.7103,28.086,29.6,1
19243182,-0.366,-0.366,0.000,0.3825,-0.3154,9.7175,28.150,29.6,1
19253194,-0.427,-0.427,-0.122,0.3717,-0.3274,9.7151,28.150,29.6,1
19263196,-0.427,-0.427,-0.061,0.3765,-0.3160,9.7061,28.062,29.6,1
19273209,-0.427,-0.427,-0.061,0.3974,-0.3148,9.7133,28.121,29.6,1
19283216,-0.366,-0.366,-0.122,0.4028,-0.2969,9.6977,28.131,29.6,1
19293224,-0.305,-0.305,-0.122,0.3867,-0.3190,9.6965,28.160,29.6,1
19303235,-0.366,-0.427,0.000,0.4022,-0.3292,9.7067,28.105,29.6,1
19313239,-0.427,-0.427,-0.061,0.3926,-0.3274,9.7199,28.143,29.6,1
19323239,-0.427,-0.366,-0.061,0.3926,-0.3382,9.6881,28.135,29.6,1
19333252,-0.305,-0.244,0.000,0.3867,-0.3154,9.6983,28.160,29.6,1
19343265,-0.305,-0.366,-0.061,0.4028,-0.3077,9.7151,28.094,29.6,1
19353268,-0.366,-0.427,-0.122,0.3867,-0.3136,9.7151,28.127,29.6,1
19363270,-0.366,-0.366,-0.061,0.3819,-0.3130,9.6899,28.094,29.6,1
19373273,-0.366,-0.366,-0.061,0.3944,-0.3238,9.7055,28.135,29.6,1
19383277,-0.427,-0.427,-0.122,0.3831,-0.3298,9.7199,28.098,29.6,1
19393277,-0.305,-0.366,-0.061,0.3873,-0.3406,9.7043,28.115,29.6,1
19403285,-0.366,-0.305,-0.061,0.3783,-0.3106,9.7067,28.129,29.6,1
19413290,-0.366,-0.366,-0.061,0.3771,-0.3340,9.6959,28.107,29.6,1
19423293,-0.366,-0.427,0.000,0.4040,-0.3166,9.7229,28.123,29.6,1
19433296,-0.366,-0.427,-0.122,0.3992,-0.3400,9.6941,28.123,29.6,1
19443300,-0.305,-0.366,-0.122,0.3771,-0.3334,9.6965,28.137,29.6,1
19453302,-0.305,-0.366,0.000,0.3926,-0.3124,9.7043,28.158,29.6,1
19463304,-0.427,-0.427,-0.122,0.4118,-0.2897,9.7223,28.154,29.6,1
19473304,-0.427,-0.427,-0.122,0.3956,-0.3358,9.7013,28.123,29.6,1
19483316,-0.366,-0.427,0.000,0.4052,-0.3226,9.7067,28.146,29.6,1
19493316,-0.305,-0.427,-0.061,0.3950,-0.3226,9.7055,28.123,29.6,1
19503328,-0.366,-0.366,-0.122,0.3867,-0.3376,9.7043,28.107,29.6,1
19513338,-0.366,-0.366,-0.061,0.3855,-0.3322,9.7258,28.115,29.6,1
19523346,-0.244,-0.366,0.000,0.4010,-0.3370,9.7264,28.109,29.6,1
19533346,-0.488,-0.366,-0.061,0.3819,-0.3262,9.6953,28.121,29.6,1
19543354,-0.366,-0.366,0.000,0.3849,-0.3262,9.6995,28.154,29.6,1
19553365,-0.305,-0.366,-0.122,0.3819,-0.3250,9.7007,28.172,29.6,1
19563365,-0.305,-0.366,-0.061,0.3855,-0.3196,9.7037,28.107,29.6,1
19573379,-0.488,-0.427,0.000,0.3861,-0.3202,9.6977,28.104,29.6,1
19583380,-0.427,-0.366,0.000,0.3861,-0.3376,9.7001,28.119,29.6,1
19593389,-0.305,-0.366,-0.061,0.3771,-0.3178,9.7013,28.096,29.6,1
19603395,-0.305,-0.366,-0.061,0.3783,-0.3202,9.7181,28.070,29.6,1
19613399,-0.305,-0.366,-0.061,0.3789,-0.3394,9.6995,28.070,29.6,1
19623399,-0.427,-0.366,-0.061,0.4010,-0.3442,9.7103,28.105,29.6,1
19633399,-0.305,-0.366,-0.122,0.3903,-0.3346,9.7229,28.109,29.6,1
