TimeUs,GyroX_dps,GyroY_dps,GyroZ_dps,AccelX_mps2,AccelY_mps2,AccelZ_mps2,ImuTempC,EspTempC,Status
1300672,-0.427,-0.732,0.183,-0.7715,-0.3675,9.6588,28.227,33.4,1
1310685,-0.366,-0.732,0.183,-0.7452,-0.3627,9.6624,28.248,33.4,1
1320698,-0.244,-0.610,0.183,-0.7494,-0.3681,9.6414,28.207,33.4,1
1330699,-0.427,-0.549,0.183,-0.7661,-0.3657,9.6570,28.207,33.4,1
1340699,-0.305,-0.732,0.183,-0.7775,-0.3867,9.6492,28.205,33.4,1
1350700,-0.305,-0.671,0.122,-0.7416,-0.3753,9.6432,28.234,33.4,1
1360712,-0.366,-0.549,0.305,-0.7602,-0.3825,9.6624,28.238,33.4,1
1370714,-0.366,-0.671,0.244,-0.7578,-0.3837,9.6534,28.238,33.4,1
1380715,-0.183,-0.671,0.061,-0.7428,-0.3735,9.6468,28.297,33.4,1
1390715,-0.305,-0.671,0.183,-0.7464,-0.3753,9.6450,28.260,33.4,1
1400715,-0.244,-0.793,0.244,-0.7608,-0.3986,9.6540,28.242,33.4,1
1410729,-0.305,-0.732,0.183,-0.7602,-0.3675,9.6420,28.248,33.4,1
1420730,-0.488,-0.732,0.122,-0.7542,-0.3687,9.6325,28.242,33.4,1
1430730,-0.366,-0.671,0.122,-0.7428,-0.3729,9.6492,28.238,33.4,1
1440730,-0.366,-0.671,0.183,-0.7548,-0.3735,9.6450,28.240,33.4,1
1450730,-0.366,-0.732,0.183,-0.7482,-0.3873,9.6504,28.275,33.4,1
1460730,-0.244,-0.671,0.183,-0.7458,-0.3717,9.6504,28.258,33.4,1
1470730,-0.244,-0.671,0.183,-0.7374,-0.3795,9.6492,28.258,33.4,1
1480730,-0.366,-0.610,0.183,-0.7428,-0.3603,9.6462,28.248,33.4,1
1490730,-0.427,-0.793,0.244,-0.7476,-0.3531,9.6492,28.279,33.4,1
1500730,-0.427,-0.793,0.244,-0.7476,-0.3531,9.6492,28.277,33.4,1
1510730,-0.366,-0.732,0.183,-0.7542,-0.3777,9.6409,28.311,33.4,1
1520730,-0.366,-0.671,0.183,-0.7506,-0.3663,9.6361,28.277,33.4,1
1530730,-0.427,-0.732,0.244,-0.7608,-0.3759,9.6516,28.291,33.4,1
1540730,-0.305,-0.732,0.122,-0.7608,-0.3831,9.6462,28.223,33.4,1
1550744,-0.305,-0.610,0.183,-0.7482,-0.3663,9.6397,28.273,33.4,1
1560745,-0.427,-0.610,0.183,-0.7470,-0.3705,9.6516,28.268,33.4,1
1570745,-0.366,-0.610,0.183,-0.7596,-0.3663,9.6510,28.279,33.4,1
1580745,-0.366,-0.610,0.183,-0.7602,-0.3759,9.6702,28.268,33.4,1
1590759,-0.305,-0.671,0.183,-0.7428,-0.3555,9.6564,28.307,33.4,1
1600760,-0.244,-0.610,0.244,-0.7721,-0.3615,9.6367,28.273,33.4,1
1610760,-0.244,-0.732,0.183,-0.7536,-0.3687,9.6462,28.273,33.4,1
1620761,-0.366,-0.732,0.122,-0.7284,-0.3813,9.6331,28.289,33.4,1
1630775,-0.366,-0.671,0.183,-0.7566,-0.3567,9.6444,28.307,33.4,1
1640776,-0.305,-0.732,0.122,-0.7673,-0.3651,9.6816,28.338,33.4,1
1650776,-0.427,-0.671,0.183,-0.7614,-0.3627,9.6558,28.324,33.4,1
1660776,-0.366,-0.671,0.183,-0.7530,-0.3795,9.6456,28.330,33.4,1
1670776,-0.366,-0.854,0.122,-0.7482,-0.3478,9.6325,28.287,33.4,1
1680792,-0.305,-0.732,0.183,-0.7703,-0.3735,9.6349,28.273,33.4,1
1690794,-0.305,-0.732,0.183,-0.7787,-0.3789,9.6636,28.293,33.4,1
1700794,-0.427,-0.793,0.183,-0.7608,-0.3843,9.6528,28.268,33.4,1
1710794,-0.305,-0.793,0.183,-0.7530,-0.3651,9.6456,28.303,33.4,1
1720794,-0.427,-0.671,0.183,-0.7554,-0.3585,9.6528,28.330,33.4,1
1730794,-0.427,-0.610,0.244,-0.7548,-0.3831,9.6456,28.270,33.4,1
1740794,-0.488,-0.732,0.183,-0.7386,-0.3926,9.6474,28.316,33.4,1
1750805,-0.366,-0.732,0.183,-0.7476,-0.3837,9.6546,28.316,33.4,1
1760810,-0.427,-0.854,0.122,-0.7691,-0.3723,9.6594,28.334,33.4,1
1770810,-0.488,-0.793,0.122,-0.7560,-0.3627,9.6444,28.322,33.4,1
1780810,-0.427,-0.671,0.183,-0.7506,-0.3837,9.6295,28.326,33.4,1
1790820,-0.427,-0.671,0.183,-0.7578,-0.3819,9.6510,28.371,33.4,1
1800825,-0.366,-0.732,0.183,-0.7368,-0.3699,9.6540,28.338,33.4,1
1810825,-0.366,-0.732,0.183,-0.7536,-0.3687,9.6504,28.299,33.4,1
1820825,-0.427,-0.671,0.183,-0.7464,-0.3657,9.6486,28.295,33.4,1
1830826,-0.427,-0.671,0.122,-0.7572,-0.3663,9.6528,28.342,33.4,1
1840840,-0.244,-0.732,0.122,-0.7578,-0.3879,9.6786,28.344,33.4,1
1850840,-0.305,-0.732,0.122,-0.7733,-0.3663,9.6762,28.332,33.4,1
1860840,-0.305,-0.732,0.122,-0.7548,-0.3639,9.6660,28.305,33.4,1
1870841,-0.305,-0.732,0.061,-0.7620,-0.3825,9.6558,28.289,33.4,1
1880856,-0.427,-0.671,0.122,-0.7727,-0.3813,9.6468,28.326,33.4,1
1890866,-0.427,-0.732,0.183,-0.7667,-0.3759,9.6391,28.326,33.4,1
1900871,-0.366,-0.671,0.183,-0.7673,-0.3729,9.6648,28.291,33.4,1
1910871,-0.305,-0.671,0.183,-0.7494,-0.3573,9.6648,28.279,33.4,1
1920883,-0.366,-0.610,0.122,-0.7638,-0.3669,9.6708,28.359,33.4,1
1930886,-0.305,-0.732,0.183,-0.7398,-0.3621,9.6732,28.340,33.4,1
1940887,-0.366,-0.671,0.183,-0.7608,-0.3627,9.6403,28.361,33.4,1
1950901,-0.305,-0.671,0.183,-0.7679,-0.3705,9.6331,28.312,33.4,1
1960901,-0.427,-0.610,0.122,-0.7697,-0.3915,9.6851,28.398,33.4,1
1970902,-0.305,-0.610,0.183,-0.7632,-0.3753,9.6600,28.367,33.4,1
1980902,-0.366,-0.610,0.244,-0.7655,-0.3657,9.6301,28.318,33.4,1
1990916,-0.244,-0.671,0.183,-0.7739,-0.3735,9.6552,28.330,33.4,1
2000917,-0.305,-0.671,0.244,-0.7416,-0.3681,9.6750,28.297,33.4,1
2010932,-0.305,-0.671,0.244,-0.7374,-0.3741,9.6654,28.311,33.4,1
2020933,-0.427,-0.671,0.183,-0.7643,-0.3873,9.6720,28.311,33.4,1
2030944,-0.366,-0.671,0.061,-0.7608,-0.3705,9.6768,28.338,33.4,1
2040947,-0.244,-0.732,0.244,-0.7536,-0.3879,9.6600,28.318,33.4,1
2050948,-0.305,-0.732,0.183,-0.7368,-0.3645,9.6444,28.344,33.4,1
2060963,-0.366,-0.671,0.122,-0.7488,-0.3711,9.6690,28.340,34.4,1
2070963,-0.366,-0.732,0.183,-0.7566,-0.3789,9.6468,28.322,34.4,1
2080963,-0.366,-0.671,0.183,-0.7566,-0.3807,9.6492,28.361,33.4,1
2090966,-0.366,-0.671,0.183,-0.7494,-0.3855,9.6684,28.326,33.4,1
2100978,-0.427,-0.671,0.183,-0.7518,-0.3843,9.6534,28.334,33.4,1
2110978,-0.427,-0.732,0.183,-0.7967,-0.3711,9.6528,28.332,33.4,1
2120992,-0.305,-0.793,0.244,-0.7602,-0.3747,9.6432,28.326,33.4,1
2130993,-0.427,-0.732,0.244,-0.7272,-0.3765,9.6528,28.346,33.4,1
2140993,-0.366,-0.671,0.244,-0.7638,-0.3783,9.6414,28.320,34.4,1
2150993,-0.366,-0.732,0.183,-0.7709,-0.3663,9.6462,28.363,33.4,1
2160993,-0.366,-0.610,0.183,-0.7572,-0.3879,9.6606,28.363,33.4,1
2170993,-0.366,-0.610,0.183,-0.7632,-0.3669,9.6612,28.363,33.4,1
2180993,-0.366,-0.671,0.183,-0.7655,-0.3543,9.6744,28.344,33.4,1
2190993,-0.305,-0.732,0.122,-0.7404,-0.3549,9.6528,28.361,33.4,1
2200993,-0.366,-0.732,0.183,-0.7428,-0.3502,9.6708,28.355,33.4,1
2210993,-0.488,-0.732,0.244,-0.7596,-0.3729,9.6367,28.363,33.4,1
2220993,-0.427,-0.671,0.244,-0.7356,-0.3873,9.6564,28.363,34.4,1
2231007,-0.305,-0.732,0.122,-0.7614,-0.3669,9.6444,28.312,33.4,1
2241008,-0.427,-0.671,0.305,-0.7536,-0.3621,9.6744,28.346,33.4,1
2251008,-0.305,-0.671,0.183,-0.7614,-0.3651,9.6893,28.330,33.4,1
2261020,-0.305,-0.732,0.183,-0.7362,-0.3735,9.6594,28.383,33.4,1
2271023,-0.305,-0.732,0.183,-0.7602,-0.3621,9.6462,28.342,34.4,1
2281023,-0.305,-0.671,0.122,-0.7542,-0.3657,9.6522,28.330,34.4,1
2291023,-0.305,-0.610,0.122,-0.7649,-0.3609,9.6564,28.373,34.4,1
2301024,-0.366,-0.671,0.122,-0.7805,-0.3819,9.6618,28.373,34.4,1
2311038,-0.427,-0.732,0.183,-0.7632,-0.3795,9.6672,28.328,34.4,1
2321039,-0.244,-0.610,0.183,-0.7506,-0.3705,9.6726,28.363,34.4,1
2331053,-0.366,-0.671,0.183,-0.7578,-0.3765,9.6732,28.352,34.4,1
2341054,-0.427,-0.671,0.122,-0.7584,-0.3705,9.6756,28.326,34.4,1
2351054,-0.305,-0.732,0.244,-0.7715,-0.3729,9.6726,28.348,34.4,1
2361054,-0.427,-0.732,0.183,-0.7524,-0.3681,9.6397,28.346,34.4,1
2371054,-0.427,-0.610,0.122,-0.7416,-0.3807,9.6702,28.359,34.4,1
2381054,-0.366,-0.732,0.183,-0.7494,-0.3885,9.6492,28.367,34.4,1
2391068,-0.305,-0.732,0.244,-0.7572,-0.3938,9.6510,28.355,34.4,1
2401069,-0.305,-0.610,0.244,-0.7278,-0.3687,9.6714,28.354,34.4,1
2411069,-0.305,-0.610,0.122,-0.7272,-0.3723,9.6540,28.373,34.4,1
2421069,-0.366,-0.732,0.061,-0.7536,-0.3771,9.6456,28.355,34.4,1
2431079,-0.366,-0.732,0.183,-0.7763,-0.3621,9.6732,28.309,34.4,1
2441079,-0.366,-0.732,0.183,-0.7763,-0.3621,9.6732,28.309,34.4,1
2451085,-0.366,-0.732,0.244,-0.7446,-0.3693,9.6833,28.365,34.4,1
2461100,-0.366,-0.732,0.244,-0.7135,-0.3496,9.6510,28.352,34.4,1
2471114,-0.366,-0.671,0.122,-0.7632,-0.3651,9.6636,28.357,34.4,1
2481116,-0.366,-0.610,0.061,-0.7769,-0.3663,9.6624,28.400,34.4,1
2491130,-0.427,-0.732,0.122,-0.7751,-0.3855,9.6516,28.410,34.4,1
2501130,-0.366,-0.732,0.244,-0.7506,-0.3759,9.6732,28.393,34.4,1
2511130,-0.244,-0.671,0.183,-0.7506,-0.3729,9.6816,28.340,34.4,1
2521145,-0.305,-0.671,0.183,-0.7524,-0.3867,9.6714,28.354,34.4,1
2531147,-0.305,-0.732,0.183,-0.7488,-0.3801,9.6618,28.316,34.4,1
2541161,-0.366,-0.671,0.183,-0.7691,-0.3633,9.6450,28.348,34.4,1
2551161,-0.366,-0.610,0.122,-0.7584,-0.3729,9.6588,28.377,34.4,1
2561161,-0.305,-0.732,0.061,-0.7679,-0.3687,9.6804,28.389,34.4,1
2571171,-0.244,-0.732,0.122,-0.7542,-0.3627,9.6654,28.375,34.4,1
2581176,-0.244,-0.732,0.122,-0.7626,-0.3537,9.6863,28.375,34.4,1
2591176,-0.305,-0.671,0.183,-0.7488,-0.3651,9.6732,28.371,34.4,1
2601176,-0.366,-0.732,0.183,-0.7560,-0.3681,9.6570,28.352,34.4,1
2611176,-0.427,-0.732,0.183,-0.7721,-0.3843,9.6618,28.398,33.4,1
2621176,-0.366,-0.732,0.183,-0.7626,-0.3639,9.6564,28.377,34.4,1
2631176,-0.305,-0.671,0.183,-0.7560,-0.3639,9.6409,28.354,34.4,1
2641176,-0.427,-0.671,0.183,-0.7392,-0.3849,9.6510,28.404,34.4,1
2651186,-0.427,-0.671,0.183,-0.7715,-0.3537,9.6929,28.361,34.4,1
2661191,-0.305,-0.671,0.244,-0.7596,-0.3831,9.6690,28.373,34.4,1
2671191,-0.244,-0.732,0.244,-0.7512,-0.3783,9.6397,28.350,34.4,1
2681191,-0.427,-0.610,0.244,-0.7518,-0.3639,9.6642,28.385,34.4,1
2691191,-0.488,-0.610,0.122,-0.7548,-0.3645,9.6738,28.352,33.4,1
2701204,-0.427,-0.732,0.183,-0.7548,-0.3729,9.6367,28.381,34.4,1
2711207,-0.305,-0.671,0.183,-0.7673,-0.3645,9.6666,28.381,34.4,1
2721217,-0.366,-0.671,0.122,-0.7548,-0.3795,9.6714,28.371,33.4,1
2731223,-0.305,-0.671,0.244,-0.7248,-0.3932,9.6582,28.391,34.4,1
2741234,-0.305,-0.610,0.183,-0.7386,-0.3747,9.6528,28.355,33.4,1
2751237,-0.427,-0.732,0.183,-0.7464,-0.3909,9.6696,28.367,34.4,1
2761237,-0.366,-0.671,0.122,-0.7278,-0.3843,9.6564,28.371,34.4,1
2771237,-0.366,-0.671,0.183,-0.7626,-0.3627,9.6708,28.377,34.4,1
2781251,-0.427,-0.610,0.183,-0.7643,-0.3813,9.6690,28.361,34.4,1
2791251,-0.366,-0.732,0.122,-0.7422,-0.3879,9.6690,28.371,33.4,1
2801265,-0.305,-0.671,0.122,-0.7488,-0.3717,9.6612,28.408,34.4,1
2811267,-0.305,-0.671,0.122,-0.7458,-0.3855,9.6648,28.381,33.4,1
2821283,-0.427,-0.732,0.183,-0.7464,-0.3938,9.6851,28.344,34.4,1
2831289,-0.305,-0.732,0.183,-0.7709,-0.3627,9.6594,28.383,34.4,1
2841298,-0.305,-0.671,0.183,-0.7566,-0.3729,9.6642,28.398,34.4,1
2851298,-0.366,-0.671,0.122,-0.7380,-0.3675,9.6917,28.398,34.4,1
2861303,-0.427,-0.732,0.183,-0.7620,-0.3705,9.6756,28.377,34.4,1
2871303,-0.427,-0.610,0.183,-0.7536,-0.3741,9.6738,28.396,34.4,1
2881315,-0.305,-0.671,0.122,-0.7751,-0.3705,9.6738,28.363,34.4,1
2891318,-0.366,-0.732,0.122,-0.7769,-0.3657,9.6786,28.402,34.4,1
2901331,-0.427,-0.732,0.183,-0.7643,-0.3693,9.6582,28.352,34.4,1
2911332,-0.366,-0.671,0.122,-0.7470,-0.3681,9.6528,28.379,34.4,1
2921333,-0.244,-0.671,0.244,-0.7476,-0.3705,9.6468,28.361,34.4,1
2931348,-0.244,-0.671,0.183,-0.7482,-0.3741,9.6816,28.348,34.4,1
2941350,-0.366,-0.671,0.122,-0.7763,-0.3561,9.6750,28.365,34.4,1
2951364,-0.305,-0.732,0.183,-0.7817,-0.3705,9.6660,28.367,34.4,1
2961364,-0.366,-0.671,0.122,-0.7410,-0.3962,9.6576,28.377,34.4,1
2971376,-0.366,-0.671,0.183,-0.7494,-0.3867,9.6744,28.393,34.4,1
2981379,-0.427,-0.732,0.183,-0.7488,-0.3723,9.6672,28.352,34.4,1
2991379,-0.427,-0.732,0.122,-0.7506,-0.3795,9.6528,28.352,34.4,1
3001380,-0.366,-0.671,0.183,-0.7476,-0.3771,9.6624,28.379,34.4,1
3011394,-0.305,-0.671,0.122,-0.7727,-0.3561,9.6666,28.395,34.4,1
3021405,-0.244,-0.732,0.244,-0.7632,-0.3699,9.6726,28.350,34.4,1
3031410,-0.366,-0.793,0.183,-0.7638,-0.3813,9.6792,28.391,34.4,1
3041410,-0.305,-0.671,0.183,-0.7452,-0.3741,9.6630,28.373,34.4,1
3051410,-0.305,-0.671,0.183,-0.7302,-0.3687,9.6822,28.381,34.4,1
3061410,-0.366,-0.732,0.122,-0.7638,-0.3717,9.6726,28.391,34.4,1
3071410,-0.305,-0.793,0.183,-0.7805,-0.3807,9.6600,28.357,34.4,1
3081410,-0.366,-0.793,0.122,-0.7560,-0.3831,9.6409,28.402,34.4,1
3091410,-0.366,-0.671,0.122,-0.7512,-0.3478,9.6666,28.338,34.4,1
3101410,-0.305,-0.732,0.183,-0.7560,-0.3508,9.6816,28.398,34.4,1
3111425,-0.305,-0.732,0.183,-0.7548,-0.3639,9.6450,28.441,34.4,1
3121425,-0.305,-0.671,0.183,-0.7596,-0.3735,9.6552,28.369,34.4,1
3131425,-0.427,-0.610,0.183,-0.7548,-0.3561,9.6403,28.369,34.4,1
3141425,-0.305,-0.732,0.183,-0.7655,-0.3687,9.6355,28.426,34.4,1
3151435,-0.305,-0.732,0.244,-0.7679,-0.3651,9.6594,28.406,34.4,1
3161435,-0.366,-0.671,0.122,-0.7506,-0.3609,9.6576,28.400,34.4,1
3171440,-0.366,-0.610,0.244,-0.7685,-0.3555,9.6576,28.385,34.4,1
3181440,-0.366,-0.671,0.244,-0.7434,-0.3831,9.6822,28.420,34.4,1
3191441,-0.427,-0.732,0.183,-0.7638,-0.3699,9.6660,28.428,34.4,1
3201455,-0.305,-0.671,0.183,-0.7434,-0.3627,9.6367,28.406,34.4,1
3211456,-0.305,-0.732,0.183,-0.7464,-0.3675,9.6576,28.412,34.4,1
3221470,-0.305,-0.732,0.183,-0.7614,-0.3508,9.6947,28.385,34.4,1
3231483,-0.366,-0.732,0.122,-0.7518,-0.3502,9.6600,28.396,34.4,1
3241485,-0.305,-0.732,0.244,-0.7470,-0.3693,9.6546,28.363,34.4,1
3251498,-0.244,-0.671,0.305,-0.7673,-0.3891,9.6606,28.379,34.4,1
3261501,-0.244,-0.671,0.244,-0.7500,-0.3711,9.6379,28.383,34.4,1
3271501,-0.427,-0.793,0.183,-0.7566,-0.3825,9.6397,28.383,34.4,1
3281501,-0.427,-0.671,0.244,-0.7614,-0.3956,9.6642,28.404,34.4,1
3291501,-0.366,-0.671,0.122,-0.7626,-0.3657,9.6720,28.381,34.4,1
3301501,-0.305,-0.732,0.183,-0.7632,-0.3561,9.6708,28.432,34.4,1
3311501,-0.244,-0.732,0.244,-0.7649,-0.3633,9.6420,28.389,34.4,1
3321502,-0.366,-0.793,0.183,-0.7596,-0.3735,9.6403,28.420,34.4,1
3331516,-0.366,-0.732,0.122,-0.7655,-0.3885,9.6624,28.393,34.4,1
3341516,-0.427,-0.671,0.183,-0.7643,-0.3699,9.6486,28.451,34.4,1
3351516,-0.427,-0.671,0.122,-0.7715,-0.3669,9.6654,28.352,34.4,1
3361517,-0.244,-0.732,0.183,-0.7709,-0.3843,9.6516,28.422,34.4,1
3371532,-0.366,-0.732,0.122,-0.7691,-0.3777,9.6576,28.387,34.4,1
3381532,-0.366,-0.732,0.122,-0.7691,-0.3777,9.6576,28.408,34.4,1
3391532,-0.366,-0.732,0.122,-0.7488,-0.3687,9.6983,28.367,34.4,1
3401546,-0.366,-0.671,0.244,-0.7326,-0.3843,9.6738,28.367,34.4,1
3411547,-0.366,-0.732,0.244,-0.7614,-0.3843,9.6528,28.412,34.4,1
3421561,-0.305,-0.671,0.183,-0.7488,-0.3879,9.6744,28.406,34.4,1
3431562,-0.305,-0.671,0.122,-0.7368,-0.3873,9.6654,28.381,34.4,1
3441562,-0.366,-0.732,0.122,-0.7602,-0.3496,9.6570,28.389,34.4,1
3451562,-0.305,-0.671,0.183,-0.7697,-0.3765,9.6768,28.424,34.4,1
3461562,-0.305,-0.610,0.122,-0.7512,-0.3717,9.6786,28.387,34.4,1
3471562,-0.366,-0.732,0.183,-0.7482,-0.3585,9.6672,28.416,34.4,1
3481562,-0.366,-0.671,0.183,-0.7709,-0.3645,9.6612,28.414,34.4,1
3491562,-0.427,-0.732,0.183,-0.7596,-0.3861,9.6881,28.365,34.4,1
3501562,-0.366,-0.732,0.183,-0.7572,-0.3783,9.6971,28.422,34.4,1
3511562,-0.366,-0.610,0.122,-0.7608,-0.3897,9.6792,28.379,34.4,1
3521562,-0.366,-0.671,0.183,-0.7590,-0.3675,9.6720,28.441,34.4,1
3531563,-0.427,-0.671,0.183,-0.7470,-0.3747,9.6510,28.438,34.4,1
3541577,-0.366,-0.610,0.244,-0.7572,-0.3579,9.6588,28.438,34.4,1
3551577,-0.305,-0.671,0.183,-0.7476,-0.3693,9.6696,28.375,34.4,1
3561577,-0.305,-0.671,0.183,-0.7584,-0.3705,9.6522,28.391,34.4,1
3571577,-0.366,-0.793,0.183,-0.7548,-0.3687,9.6720,28.408,34.4,1
3581577,-0.427,-0.732,0.183,-0.7476,-0.3741,9.6684,28.441,34.4,1
3591577,-0.427,-0.671,0.183,-0.7500,-0.3855,9.6666,28.383,34.4,1
3601577,-0.488,-0.732,0.244,-0.7703,-0.3675,9.6636,28.414,34.4,1
3611578,-0.366,-0.732,0.183,-0.7614,-0.3717,9.6528,28.389,34.4,1
3621593,-0.305,-0.732,0.244,-0.7691,-0.3675,9.6630,28.404,34.4,1
3631608,-0.366,-0.732,0.122,-0.7614,-0.3915,9.6648,28.414,34.4,1
3641622,-0.366,-0.671,0.183,-0.7649,-0.3807,9.6534,28.422,34.4,1
3651636,-0.366,-0.732,0.183,-0.7500,-0.3705,9.6600,28.406,34.4,1
3661638,-0.366,-0.732,0.183,-0.7452,-0.3639,9.6564,28.361,34.4,1
3671638,-0.366,-0.732,0.122,-0.7715,-0.3783,9.6528,28.357,34.4,1
3681649,-0.305,-0.671,0.183,-0.7524,-0.3591,9.6839,28.357,34.4,1
3691654,-0.244,-0.732,0.183,-0.7428,-0.3663,9.6965,28.371,34.4,1
3701668,-0.366,-0.732,0.122,-0.7482,-0.3717,9.6774,28.389,34.4,1
3711669,-0.366,-0.732,0.183,-0.7572,-0.3932,9.6875,28.389,34.4,1
3721677,-0.366,-0.732,0.244,-0.7643,-0.3807,9.6845,28.371,34.4,1
3731684,-0.305,-0.793,0.183,-0.7548,-0.3771,9.6732,28.387,34.4,1
3741684,-0.366,-0.732,0.183,-0.7608,-0.3645,9.6690,28.434,34.4,1
3751684,-0.366,-0.671,0.183,-0.7721,-0.3609,9.6552,28.398,34.4,1
3761684,-0.305,-0.732,0.122,-0.7440,-0.3723,9.6744,28.414,34.4,1
3771684,-0.183,-0.671,0.122,-0.7350,-0.3897,9.6444,28.418,34.4,1
3781684,-0.366,-0.732,0.183,-0.7404,-0.3549,9.6504,28.387,34.4,1
3791684,-0.427,-0.671,0.244,-0.7608,-0.3801,9.6762,28.371,34.4,1
3801696,-0.305,-0.671,0.183,-0.7524,-0.3789,9.6678,28.412,34.4,1
3811696,-0.366,-0.732,0.122,-0.7494,-0.3645,9.6564,28.406,34.4,1
3821699,-0.366,-0.671,0.122,-0.7584,-0.3849,9.6654,28.406,34.4,1
3831714,-0.427,-0.732,0.122,-0.7542,-0.3903,9.6630,28.396,34.4,1
3841715,-0.366,-0.732,0.183,-0.7332,-0.3855,9.6540,28.389,34.4,1
3851715,-0.305,-0.671,0.244,-0.7428,-0.3789,9.6468,28.418,34.4,1
3861715,-0.366,-0.732,0.183,-0.7434,-0.3687,9.6516,28.434,34.4,1
3871715,-0.305,-0.732,0.183,-0.7392,-0.3693,9.6678,28.387,34.4,1
3881727,-0.305,-0.610,0.183,-0.7649,-0.3867,9.6492,28.379,34.4,1
3891730,-0.305,-0.671,0.244,-0.7536,-0.3837,9.6379,28.379,34.4,1
3901730,-0.366,-0.732,0.061,-0.7338,-0.3867,9.6702,28.395,34.4,1
3911742,-0.427,-0.671,0.061,-0.7488,-0.3729,9.6678,28.412,34.4,1
3921745,-0.366,-0.671,0.122,-0.7667,-0.3717,9.6552,28.438,34.4,1
3931747,-0.366,-0.793,0.061,-0.7536,-0.3681,9.6726,28.369,34.4,1
3941750,-0.427,-0.732,0.183,-0.7536,-0.3837,9.6786,28.406,34.4,1
3951761,-0.366,-0.732,0.122,-0.7691,-0.3753,9.6636,28.439,34.4,1
3961761,-0.427,-0.671,0.244,-0.7626,-0.3849,9.6726,28.439,34.4,1
3971775,-0.427,-0.671,0.183,-0.7374,-0.3909,9.6678,28.404,34.4,1
3981776,-0.427,-0.671,0.183,-0.7392,-0.3795,9.6678,28.350,34.4,1
3991776,-0.427,-0.671,0.183,-0.7715,-0.3813,9.6798,28.451,34.4,1
4001776,-0.366,-0.732,0.183,-0.7566,-0.3926,9.6636,28.443,34.4,1
4011776,-0.305,-0.793,0.122,-0.7620,-0.3771,9.6720,28.383,34.4,1
4021776,-0.427,-0.610,0.061,-0.7763,-0.3591,9.6756,28.404,34.4,1
4031776,-0.488,-0.671,0.183,-0.7536,-0.3543,9.6468,28.385,34.4,1
4041776,-0.488,-0.610,0.183,-0.7685,-0.3771,9.6492,28.400,34.4,1
4051776,-0.427,-0.610,0.183,-0.7524,-0.3711,9.6624,28.438,34.4,1
4061783,-0.427,-0.671,0.183,-0.7476,-0.3567,9.6594,28.400,34.4,1
4071794,-0.366,-0.732,0.183,-0.7536,-0.3789,9.6552,28.418,34.4,1
4081794,-0.366,-0.610,0.122,-0.7476,-0.3855,9.6504,28.391,34.4,1
4091794,-0.305,-0.732,0.244,-0.7655,-0.3777,9.6666,28.391,34.4,1
4101794,-0.305,-0.732,0.183,-0.7464,-0.3681,9.6768,28.406,34.4,1
4111794,-0.305,-0.793,0.183,-0.7512,-0.3675,9.6863,28.400,34.4,1
4121794,-0.366,-0.732,0.183,-0.7620,-0.3549,9.6343,28.373,34.4,1
4131794,-0.305,-0.671,0.183,-0.7488,-0.3753,9.6540,28.453,34.4,1
4141795,-0.305,-0.671,0.183,-0.7685,-0.3723,9.6678,28.402,34.4,1
4151795,-0.244,-0.732,0.122,-0.7494,-0.3717,9.6684,28.400,34.4,1
4161807,-0.305,-0.732,0.122,-0.7482,-0.3807,9.6893,28.426,34.4,1
4171810,-0.366,-0.732,0.122,-0.7620,-0.3789,9.6780,28.414,34.4,1
4181810,-0.305,-0.793,0.183,-0.7572,-0.3861,9.6750,28.434,34.4,1
4191824,-0.427,-0.732,0.183,-0.7386,-0.3861,9.6654,28.412,34.4,1
4201825,-0.366,-0.732,0.183,-0.7428,-0.3585,9.6606,28.402,34.4,1
4211840,-0.427,-0.671,0.183,-0.7655,-0.3543,9.6678,28.438,34.4,1
4221841,-0.305,-0.671,0.122,-0.7643,-0.3663,9.6804,28.404,34.4,1
4231856,-0.366,-0.793,0.183,-0.7530,-0.3735,9.6881,28.404,34.4,1
4241871,-0.366,-0.610,0.122,-0.7548,-0.3789,9.6630,28.404,34.4,1
4251871,-0.244,-0.549,0.183,-0.7482,-0.3831,9.6738,28.396,34.4,1
4261871,-0.366,-0.610,0.183,-0.7458,-0.3681,9.6750,28.418,34.4,1
4271871,-0.366,-0.732,0.244,-0.7458,-0.3633,9.6660,28.426,34.4,1
4281871,-0.305,-0.732,0.244,-0.7536,-0.3669,9.6636,28.416,34.4,1
4291871,-0.366,-0.732,0.183,-0.7775,-0.3699,9.6708,28.391,34.4,1
4301872,-0.366,-0.671,0.122,-0.7763,-0.3609,9.6319,28.410,34.4,1
4311886,-0.366,-0.732,0.122,-0.7602,-0.3621,9.6822,28.424,34.4,1
4321886,-0.366,-0.732,0.122,-0.7602,-0.3621,9.6822,28.395,34.4,1
4331886,-0.305,-0.732,0.183,-0.7368,-0.3663,9.6624,28.418,34.4,1
4341886,-0.366,-0.732,0.122,-0.7374,-0.3687,9.6923,28.439,34.4,1
4351886,-0.488,-0.610,0.122,-0.7578,-0.3723,9.6780,28.473,34.4,1
4361886,-0.305,-0.549,0.122,-0.7602,-0.3765,9.6732,28.408,34.4,1
4371886,-0.305,-0.732,0.122,-0.7614,-0.3974,9.6708,28.408,34.4,1
4381901,-0.488,-0.732,0.183,-0.7506,-0.3831,9.6857,28.465,34.4,1
4391902,-0.427,-0.671,0.183,-0.7554,-0.3771,9.6750,28.428,34.4,1
4401902,-0.366,-0.793,0.183,-0.7530,-0.3657,9.6816,28.438,34.4,1
4411917,-0.366,-0.671,0.183,-0.7661,-0.3579,9.6750,28.498,34.4,1
4421931,-0.366,-0.732,0.183,-0.7470,-0.3484,9.6606,28.430,34.4,1
4431933,-0.366,-0.732,0.244,-0.7638,-0.3735,9.6929,28.418,34.4,1
4441933,-0.305,-0.732,0.183,-0.7494,-0.3837,9.6941,28.385,34.4,1
4451947,-0.366,-0.671,0.183,-0.7608,-0.3639,9.6804,28.402,34.4,1
4461947,-0.427,-0.671,0.122,-0.7488,-0.3639,9.6851,28.404,34.4,1
4471947,-0.305,-0.671,0.183,-0.7506,-0.3741,9.6612,28.426,34.4,1
4481962,-0.244,-0.671,0.183,-0.7494,-0.3693,9.6606,28.395,34.4,1
4491963,-0.366,-0.732,0.183,-0.7649,-0.3753,9.6762,28.447,34.4,1
4501963,-0.366,-0.732,0.183,-0.7500,-0.3717,9.6636,28.432,34.4,1
4511963,-0.427,-0.732,0.244,-0.7560,-0.3729,9.6702,28.432,34.4,1
4521964,-0.427,-0.671,0.183,-0.7494,-0.3561,9.6612,28.377,34.4,1
4531979,-0.366,-0.671,0.183,-0.7787,-0.3633,9.6750,28.455,34.4,1
4541993,-0.366,-0.671,0.244,-0.7643,-0.3849,9.6726,28.428,34.4,1
4551993,-0.366,-0.671,0.244,-0.7590,-0.3639,9.6624,28.426,34.4,1
4562007,-0.305,-0.671,0.183,-0.7661,-0.3735,9.6361,28.438,34.4,1
4572018,-0.427,-0.671,0.183,-0.7470,-0.3699,9.6564,28.438,34.4,1
4582024,-0.366,-0.732,0.183,-0.7703,-0.3962,9.6881,28.426,34.4,1
4592038,-0.488,-0.732,0.183,-0.7685,-0.3723,9.6630,28.438,34.4,1
4602038,-0.305,-0.732,0.183,-0.7500,-0.3657,9.6714,28.443,34.4,1
4612038,-0.244,-0.610,0.183,-0.7578,-0.3735,9.6600,28.402,34.4,1
4622038,-0.305,-0.610,0.183,-0.7482,-0.3645,9.6558,28.463,34.4,1
4632039,-0.366,-0.671,0.122,-0.7679,-0.3555,9.6702,28.469,34.4,1
4642053,-0.244,-0.671,0.122,-0.7751,-0.3795,9.6576,28.467,34.4,1
4652054,-0.305,-0.732,0.183,-0.7572,-0.3633,9.6774,28.467,34.4,1
4662054,-0.366,-0.732,0.183,-0.7560,-0.3508,9.6522,28.436,34.4,1
4672054,-0.305,-0.732,0.183,-0.7560,-0.3741,9.6582,28.439,34.4,1
4682054,-0.305,-0.732,0.183,-0.7512,-0.3675,9.6899,28.439,34.4,1
4692055,-0.366,-0.732,0.183,-0.7536,-0.3651,9.6720,28.432,34.4,1
4702069,-0.305,-0.732,0.244,-0.7362,-0.3777,9.6612,28.430,34.4,1
4712069,-0.366,-0.732,0.122,-0.7733,-0.3717,9.6678,28.406,34.4,1
4722079,-0.305,-0.732,0.122,-0.7614,-0.3711,9.6744,28.400,34.4,1
4732084,-0.305,-0.732,0.183,-0.7536,-0.3490,9.6893,28.387,34.4,1
4742085,-0.366,-0.732,0.183,-0.7404,-0.3771,9.6636,28.438,34.4,1
4752097,-0.183,-0.732,0.183,-0.7787,-0.3663,9.6492,28.490,34.4,1
4762100,-0.366,-0.793,0.183,-0.7452,-0.3561,9.6552,28.404,34.4,1
4772100,-0.488,-0.732,0.183,-0.7512,-0.3711,9.6768,28.414,34.4,1
4782115,-0.427,-0.671,0.183,-0.7649,-0.3885,9.6714,28.414,34.4,1
4792129,-0.366,-0.732,0.183,-0.7608,-0.3723,9.6588,28.408,34.4,1
4802130,-0.305,-0.732,0.183,-0.7578,-0.3687,9.6672,28.410,34.4,1
4812130,-0.305,-0.671,0.122,-0.7530,-0.3549,9.6744,28.457,34.4,1
4822130,-0.305,-0.671,0.122,-0.7769,-0.3687,9.6612,28.393,34.4,1
4832131,-0.305,-0.793,0.061,-0.7524,-0.3717,9.6696,28.424,34.4,1
4842146,-0.366,-0.732,0.122,-0.7530,-0.3753,9.6678,28.445,34.4,1
4852146,-0.366,-0.671,0.183,-0.7769,-0.3537,9.6714,28.404,34.4,1
4862155,-0.366,-0.671,0.183,-0.7398,-0.3555,9.6768,28.428,34.4,1
4872158,-0.366,-0.854,0.183,-0.7308,-0.3783,9.6702,28.395,34.4,1
4882161,-0.427,-0.793,0.183,-0.7446,-0.3651,9.6666,28.451,34.4,1
4892176,-0.366,-0.732,0.122,-0.7488,-0.3777,9.6582,28.434,34.4,1
4902184,-0.427,-0.732,0.183,-0.7446,-0.3759,9.6630,28.404,34.4,1
4912191,-0.427,-0.793,0.183,-0.7518,-0.3789,9.6618,28.379,34.4,1
4922206,-0.305,-0.732,0.183,-0.7614,-0.3687,9.6588,28.379,34.4,1
4932207,-0.366,-0.732,0.183,-0.7440,-0.3585,9.6331,28.443,34.4,1
4942207,-0.305,-0.671,0.183,-0.7590,-0.3765,9.6546,28.441,34.4,1
4952222,-0.366,-0.671,0.183,-0.7602,-0.3723,9.6720,28.436,34.4,1
4962232,-0.366,-0.671,0.122,-0.7410,-0.3687,9.6798,28.439,34.4,1
4972237,-0.366,-0.793,0.183,-0.7398,-0.3591,9.6774,28.439,34.4,1
4982237,-0.366,-0.671,0.122,-0.7554,-0.3735,9.6798,28.461,34.4,1
4992237,-0.366,-0.732,0.122,-0.7500,-0.3843,9.6672,28.354,34.4,1
5002237,-0.366,-0.732,0.244,-0.7626,-0.3938,9.6600,28.363,34.4,1
5012237,-0.427,-0.610,0.183,-0.7560,-0.3651,9.6750,28.416,34.4,1
5022237,-0.366,-0.671,0.183,-0.7518,-0.3771,9.6564,28.365,34.4,1
5032237,-0.244,-0.793,0.183,-0.7614,-0.3956,9.6630,28.438,34.4,1
5042237,-0.366,-0.732,0.122,-0.7745,-0.3873,9.6612,28.449,34.4,1
5052237,-0.305,-0.610,0.122,-0.7673,-0.3861,9.6792,28.420,34.4,1
5062237,-0.366,-0.671,0.183,-0.7518,-0.3675,9.6780,28.420,34.4,1
5072251,-0.366,-0.793,0.183,-0.7632,-0.3795,9.6558,28.432,34.4,1
5082253,-0.366,-0.732,0.183,-0.7667,-0.3687,9.6480,28.416,34.4,1
5092267,-0.427,-0.671,0.122,-0.7739,-0.3759,9.6696,28.453,34.4,1
5102267,-0.366,-0.732,0.122,-0.7386,-0.3944,9.6839,28.434,34.4,1
5112267,-0.305,-0.671,0.183,-0.7494,-0.3513,9.6810,28.438,34.4,1
5122268,-0.366,-0.732,0.183,-0.7667,-0.3663,9.6594,28.438,34.4,1
5132268,-0.366,-0.671,0.183,-0.7787,-0.3759,9.6786,28.445,34.4,1
5142283,-0.305,-0.671,0.183,-0.7703,-0.3603,9.6672,28.445,34.4,1
5152287,-0.366,-0.610,0.244,-0.7476,-0.3406,9.6720,28.422,34.4,1
5162287,-0.366,-0.671,0.183,-0.7608,-0.3741,9.6654,28.469,34.4,1
5172288,-0.366,-0.732,0.183,-0.7673,-0.3783,9.6672,28.396,34.4,1
5182303,-0.305,-0.732,0.183,-0.7482,-0.3675,9.6600,28.457,34.4,1
5192303,-0.305,-0.793,0.244,-0.7554,-0.3771,9.6618,28.420,34.4,1
5202303,-0.244,-0.732,0.183,-0.7506,-0.3729,9.6582,28.420,34.4,1
5212303,-0.305,-0.732,0.122,-0.7434,-0.3765,9.6648,28.443,34.4,1
5222303,-0.366,-0.671,0.183,-0.7649,-0.3693,9.6827,28.428,34.4,1
5232303,-0.427,-0.671,0.183,-0.7757,-0.3675,9.6762,28.441,34.4,1
5242303,-0.366,-0.732,0.061,-0.7512,-0.3675,9.6720,28.398,34.4,1
5252303,-0.244,-0.671,0.183,-0.7518,-0.3711,9.6774,28.379,34.4,1
5262303,-0.244,-0.671,0.183,-0.7518,-0.3711,9.6774,28.461,34.4,1
5272303,-0.427,-0.671,0.183,-0.7811,-0.3645,9.6732,28.439,34.4,1
5282317,-0.366,-0.732,0.183,-0.7554,-0.3591,9.6510,28.459,34.4,1
5292318,-0.366,-0.732,0.244,-0.7530,-0.3513,9.6588,28.441,34.4,1
5302321,-0.366,-0.793,0.244,-0.7554,-0.3657,9.6822,28.439,34.4,1
5312334,-0.366,-0.671,0.244,-0.7392,-0.3819,9.6720,28.420,34.4,1
5322349,-0.366,-0.671,0.122,-0.7290,-0.3885,9.6624,28.441,34.4,1
5332349,-0.427,-0.732,0.122,-0.7422,-0.3735,9.6606,28.400,34.4,1
5342349,-0.427,-0.732,0.183,-0.7572,-0.3897,9.6690,28.400,34.4,1
5352349,-0.305,-0.610,0.183,-0.7548,-0.3783,9.6678,28.447,34.4,1
5362349,-0.366,-0.732,0.183,-0.7572,-0.3801,9.6702,28.443,34.4,1
5372349,-0.427,-0.732,0.244,-0.7464,-0.3687,9.6624,28.412,34.4,1
5382349,-0.305,-0.610,0.183,-0.7482,-0.3831,9.6624,28.428,34.4,1
5392361,-0.366,-0.732,0.122,-0.7691,-0.3783,9.6576,28.432,34.4,1
5402367,-0.244,-0.732,0.122,-0.7590,-0.3741,9.6684,28.422,34.4,1
5412376,-0.366,-0.671,0.122,-0.7440,-0.3687,9.6899,28.467,34.4,1
5422379,-0.366,-0.671,0.122,-0.7626,-0.3801,9.6851,28.447,34.4,1
5432379,-0.366,-0.671,0.244,-0.7781,-0.3801,9.6522,28.414,34.4,1
5442379,-0.366,-0.732,0.122,-0.7434,-0.3771,9.6762,28.436,34.4,1
5452379,-0.366,-0.732,0.183,-0.7482,-0.3795,9.6624,28.402,34.4,1
5462380,-0.427,-0.732,0.183,-0.7691,-0.3627,9.6666,28.385,34.4,1
5472394,-0.427,-0.732,0.183,-0.7673,-0.3741,9.6558,28.385,34.4,1
5482395,-0.305,-0.732,0.183,-0.7560,-0.3663,9.6654,28.443,34.4,1
5492410,-0.366,-0.671,0.122,-0.7500,-0.3609,9.6708,28.432,34.4,1
5502410,-0.366,-0.610,0.183,-0.7476,-0.3741,9.6588,28.426,34.4,1
5512411,-0.366,-0.732,0.244,-0.7584,-0.3801,9.6498,28.434,34.4,1
5522425,-0.366,-0.671,0.183,-0.7536,-0.3753,9.6522,28.424,34.4,1
5532425,-0.305,-0.610,0.183,-0.7440,-0.3837,9.6672,28.469,34.4,1
5542425,-0.244,-0.671,0.244,-0.7512,-0.3932,9.6648,28.451,34.4,1
5552440,-0.427,-0.671,0.122,-0.7793,-0.3711,9.6744,28.459,34.4,1
5562440,-0.427,-0.793,0.183,-0.7661,-0.3663,9.6720,28.439,34.4,1
5572454,-0.366,-0.793,0.183,-0.7458,-0.3753,9.6510,28.441,34.4,1
5582459,-0.305,-0.671,0.122,-0.7566,-0.3891,9.6492,28.438,34.4,1
5592471,-0.305,-0.671,0.183,-0.7404,-0.3747,9.6714,28.447,34.4,1
5602485,-0.305,-0.671,0.183,-0.7207,-0.3657,9.6636,28.426,34.4,1
5612486,-0.305,-0.732,0.122,-0.7386,-0.3699,9.6564,28.426,34.4,1
5622486,-0.427,-0.732,0.122,-0.7476,-0.3627,9.6696,28.447,34.4,1
5632496,-0.427,-0.671,0.183,-0.7643,-0.3717,9.6965,28.459,34.4,1
5642501,-0.305,-0.671,0.183,-0.7590,-0.3717,9.6588,28.443,34.4,1
5652501,-0.366,-0.671,0.183,-0.7320,-0.3777,9.6863,28.404,34.4,1
5662501,-0.427,-0.671,0.183,-0.7512,-0.3717,9.6810,28.426,34.4,1
5672501,-0.366,-0.671,0.183,-0.7572,-0.3573,9.6534,28.428,34.4,1
5682501,-0.366,-0.610,0.183,-0.7512,-0.3771,9.6660,28.432,34.4,1
5692501,-0.427,-0.671,0.122,-0.7422,-0.3747,9.6750,28.416,34.4,1
5702501,-0.366,-0.732,0.183,-0.7643,-0.4052,9.6648,28.439,34.4,1
5712501,-0.305,-0.732,0.244,-0.7757,-0.3771,9.6594,28.439,34.4,1
5722501,-0.366,-0.732,0.244,-0.7685,-0.3669,9.6738,28.443,34.4,1
5732501,-0.305,-0.671,0.244,-0.7596,-0.3699,9.6762,28.455,34.4,1
5742513,-0.366,-0.732,0.183,-0.7572,-0.3825,9.6696,28.432,34.4,1
5752514,-0.244,-0.732,0.122,-0.7643,-0.3867,9.6534,28.432,34.4,1
5762528,-0.366,-0.671,0.122,-0.7649,-0.3609,9.6582,28.414,34.4,1
5772531,-0.366,-0.671,0.122,-0.7428,-0.3615,9.6456,28.406,34.4,1
5782532,-0.366,-0.732,0.183,-0.7643,-0.3777,9.6432,28.416,34.4,1
5792532,-0.244,-0.671,0.183,-0.7572,-0.3801,9.6576,28.432,34.4,1
5802532,-0.305,-0.671,0.183,-0.7691,-0.3753,9.6636,28.432,34.4,1
5812532,-0.366,-0.732,0.305,-0.7584,-0.3849,9.6504,28.471,34.4,1
5822546,-0.366,-0.732,0.183,-0.7673,-0.3729,9.6618,28.451,34.4,1
5832546,-0.366,-0.671,0.183,-0.7602,-0.3591,9.6786,28.465,34.4,1
5842546,-0.427,-0.671,0.244,-0.7626,-0.3741,9.6660,28.404,34.4,1
5852547,-0.366,-0.793,0.183,-0.7374,-0.3801,9.6636,28.416,34.4,1
5862547,-0.366,-0.732,0.183,-0.7632,-0.3795,9.6654,28.471,34.4,1
5872548,-0.366,-0.671,0.183,-0.7691,-0.3603,9.6618,28.412,34.4,1
5882561,-0.305,-0.671,0.244,-0.7590,-0.3795,9.6552,28.439,34.4,1
5892562,-0.366,-0.671,0.183,-0.7380,-0.3729,9.6564,28.439,34.4,1
5902563,-0.427,-0.732,0.122,-0.7350,-0.3597,9.6822,28.438,34.4,1
5912577,-0.427,-0.732,0.183,-0.7434,-0.3651,9.6893,28.438,34.4,1
5922592,-0.305,-0.732,0.183,-0.7524,-0.3597,9.6474,28.389,34.4,1
5932593,-0.366,-0.732,0.183,-0.7374,-0.3645,9.6540,28.453,34.4,1
5942608,-0.366,-0.671,0.122,-0.7560,-0.3801,9.6582,28.377,34.4,1
5952608,-0.427,-0.671,0.122,-0.7757,-0.3711,9.6546,28.465,34.4,1
5962608,-0.427,-0.671,0.122,-0.7482,-0.3687,9.6768,28.453,34.4,1
5972618,-0.305,-0.671,0.183,-0.7428,-0.3627,9.6576,28.418,34.4,1
5982623,-0.305,-0.732,0.183,-0.7715,-0.3801,9.6690,28.414,34.4,1
5992635,-0.305,-0.671,0.183,-0.7602,-0.3789,9.6552,28.439,34.4,1
6002638,-0.305,-0.610,0.183,-0.7596,-0.3944,9.6462,28.441,34.4,1
6012653,-0.427,-0.671,0.183,-0.7578,-0.3873,9.6690,28.430,34.4,1
6022654,-0.427,-0.732,0.122,-0.7398,-0.3675,9.6744,28.459,34.4,1
6032654,-0.427,-0.732,0.183,-0.7338,-0.3687,9.6702,28.459,34.4,1
6042654,-0.427,-0.732,0.183,-0.7392,-0.3843,9.6756,28.467,34.4,1
6052668,-0.305,-0.671,0.183,-0.7727,-0.3921,9.6486,28.432,34.4,1
6062669,-0.366,-0.671,0.183,-0.7566,-0.3962,9.6570,28.457,34.4,1
6072683,-0.366,-0.793,0.244,-0.7488,-0.3813,9.6546,28.449,34.4,1
6082684,-0.305,-0.732,0.183,-0.7476,-0.3789,9.6480,28.455,34.4,1
6092684,-0.244,-0.671,0.183,-0.7398,-0.3765,9.6672,28.439,34.4,1
6102684,-0.183,-0.732,0.244,-0.7338,-0.3717,9.6385,28.477,34.4,1
6112684,-0.366,-0.671,0.183,-0.7386,-0.3753,9.6510,28.416,34.4,1
6122684,-0.427,-0.610,0.183,-0.7446,-0.3765,9.6612,28.439,34.4,1
6132684,-0.427,-0.610,0.183,-0.7518,-0.3663,9.6600,28.480,34.4,1
6142685,-0.305,-0.671,0.183,-0.7428,-0.3747,9.6414,28.428,34.4,1
6152698,-0.305,-0.793,0.183,-0.7416,-0.3843,9.6438,28.420,34.4,1
6162699,-0.366,-0.732,0.244,-0.7584,-0.3735,9.6480,28.420,34.4,1
6172700,-0.427,-0.610,0.244,-0.7536,-0.3765,9.6480,28.473,34.4,1
6182715,-0.244,-0.671,0.244,-0.7434,-0.3699,9.6385,28.447,34.4,1
6192715,-0.427,-0.671,0.305,-0.7344,-0.3597,9.6570,28.523,34.4,1
6202715,-0.427,-0.671,0.305,-0.7344,-0.3597,9.6570,28.479,34.4,1
6212715,-0.427,-0.671,0.183,-0.7643,-0.3651,9.6570,28.436,34.4,1
6222715,-0.427,-0.732,0.183,-0.7757,-0.3879,9.6504,28.393,34.4,1
6232715,-0.305,-0.732,0.244,-0.7578,-0.3932,9.6582,28.432,34.4,1
6242715,-0.427,-0.671,0.183,-0.7488,-0.3543,9.6654,28.436,34.4,1
6252729,-0.305,-0.671,0.122,-0.7655,-0.3735,9.6576,28.449,34.4,1
6262730,-0.366,-0.671,0.122,-0.7560,-0.3681,9.6564,28.447,34.4,1
6272730,-0.366,-0.671,0.183,-0.7302,-0.3771,9.6732,28.496,34.4,1
6282730,-0.427,-0.793,0.183,-0.7272,-0.3765,9.6887,28.418,34.4,1
6292744,-0.427,-0.732,0.122,-0.7775,-0.3831,9.7043,28.449,34.4,1
6302744,-0.366,-0.671,0.244,-0.7626,-0.3753,9.6845,28.449,34.4,1
6312744,-0.305,-0.732,0.244,-0.7572,-0.3831,9.6690,28.416,34.4,1
6322745,-0.305,-0.671,0.244,-0.7338,-0.3771,9.6564,28.432,34.4,1
6332746,-0.488,-0.671,0.183,-0.7709,-0.3555,9.6786,28.416,34.4,1
6342761,-0.366,-0.610,0.122,-0.7548,-0.3633,9.6714,28.434,34.4,1
6352776,-0.427,-0.671,0.122,-0.7374,-0.3849,9.6953,28.439,34.4,1
6362776,-0.427,-0.732,0.122,-0.7566,-0.3795,9.6786,28.424,34.4,1
6372776,-0.366,-0.671,0.244,-0.7506,-0.3789,9.6576,28.406,34.4,1
6382794,-0.366,-0.671,0.244,-0.7560,-0.3789,9.6863,28.459,34.4,1
6392794,-0.427,-0.671,0.183,-0.7685,-0.3531,9.6702,28.447,34.4,1
6402795,-0.366,-0.793,0.183,-0.7542,-0.3657,9.6780,28.436,34.4,1
6412809,-0.305,-0.793,0.122,-0.7596,-0.3729,9.6576,28.463,34.4,1
6422810,-0.366,-0.732,0.122,-0.7572,-0.3765,9.6456,28.414,34.4,1
6432810,-0.366,-0.732,0.305,-0.7392,-0.3789,9.6510,28.457,34.4,1
6442810,-0.366,-0.732,0.183,-0.7584,-0.3968,9.6786,28.457,34.4,1
6452822,-0.366,-0.732,0.244,-0.7620,-0.3771,9.6714,28.461,34.4,1
6462824,-0.427,-0.732,0.305,-0.7500,-0.3699,9.6510,28.461,34.4,1
6472825,-0.427,-0.671,0.183,-0.7566,-0.3783,9.6624,28.477,34.4,1
6482840,-0.366,-0.671,0.183,-0.7524,-0.3639,9.6702,28.436,34.4,1
6492840,-0.366,-0.732,0.183,-0.7404,-0.3813,9.6786,28.463,34.4,1
6502840,-0.305,-0.732,0.244,-0.7506,-0.3867,9.6798,28.439,34.4,1
6512840,-0.366,-0.732,0.183,-0.7733,-0.3837,9.6636,28.457,34.4,1
6522840,-0.366,-0.610,0.183,-0.7643,-0.3801,9.6929,28.490,34.4,1
6532853,-0.366,-0.671,0.183,-0.7584,-0.3705,9.6750,28.457,34.4,1
6542855,-0.366,-0.732,0.122,-0.7584,-0.3699,9.6564,28.457,34.4,1
6552856,-0.366,-0.732,0.183,-0.7638,-0.3651,9.6774,28.469,34.4,1
6562871,-0.244,-0.549,0.122,-0.7685,-0.3843,9.6881,28.439,34.4,1
6572871,-0.366,-0.671,0.183,-0.7590,-0.3741,9.6810,28.498,34.4,1
6582885,-0.427,-0.793,0.183,-0.7386,-0.3663,9.6576,28.498,34.4,1
6592890,-0.488,-0.671,0.183,-0.7548,-0.3789,9.6672,28.420,34.4,1
6602897,-0.366,-0.732,0.183,-0.7620,-0.3795,9.6714,28.418,34.4,1
6612902,-0.366,-0.732,0.183,-0.7590,-0.3543,9.6863,28.455,34.4,1
6622902,-0.366,-0.732,0.183,-0.7548,-0.3442,9.6810,28.426,34.4,1
6632902,-0.366,-0.793,0.183,-0.7422,-0.3729,9.6576,28.445,34.4,1
6642914,-0.366,-0.671,0.183,-0.7632,-0.3795,9.6684,28.463,34.4,1
6652917,-0.305,-0.671,0.183,-0.7548,-0.3903,9.6486,28.426,34.4,1
6662917,-0.366,-0.732,0.183,-0.7596,-0.3561,9.6696,28.465,34.4,1
6672917,-0.366,-0.671,0.122,-0.7638,-0.3609,9.6989,28.430,34.4,1
6682917,-0.366,-0.732,0.122,-0.7590,-0.3561,9.6827,28.486,34.4,1
6692918,-0.366,-0.732,0.183,-0.7482,-0.3729,9.6492,28.447,34.4,1
6702933,-0.427,-0.732,0.061,-0.7596,-0.3777,9.6672,28.426,34.4,1
6712947,-0.305,-0.671,0.122,-0.7673,-0.3825,9.6558,28.404,34.4,1
6722947,-0.305,-0.610,0.183,-0.7584,-0.3687,9.6816,28.404,34.4,1
6732947,-0.305,-0.671,0.122,-0.7512,-0.3675,9.6552,28.438,34.4,1
6742947,-0.244,-0.732,0.122,-0.7608,-0.3747,9.6414,28.451,34.4,1
6752947,-0.305,-0.793,0.183,-0.7470,-0.3597,9.6732,28.424,34.4,1
6762947,-0.427,-0.671,0.183,-0.7661,-0.3723,9.6438,28.424,34.4,1
6772962,-0.366,-0.671,0.183,-0.7685,-0.3657,9.6678,28.459,34.4,1
6782963,-0.427,-0.793,0.183,-0.7638,-0.3843,9.6702,28.420,34.4,1
6792963,-0.610,-0.732,0.183,-0.7572,-0.3885,9.6714,28.484,34.4,1
6802970,-0.366,-0.671,0.183,-0.7177,-0.3711,9.6660,28.434,34.4,1
6812977,-0.305,-0.671,0.244,-0.7458,-0.3759,9.6486,28.441,34.4,1
6822978,-0.366,-0.732,0.183,-0.7691,-0.3771,9.6714,28.459,34.4,1
6832978,-0.366,-0.732,0.183,-0.7458,-0.3711,9.6636,28.449,34.4,1
6842978,-0.366,-0.732,0.183,-0.7458,-0.3543,9.6654,28.473,34.4,1
6852992,-0.305,-0.671,0.305,-0.7578,-0.3693,9.6798,28.473,34.4,1
6863005,-0.366,-0.732,0.183,-0.7709,-0.3903,9.6696,28.393,34.4,1
6873018,-0.427,-0.732,0.183,-0.7398,-0.3681,9.6816,28.420,34.4,1
6883023,-0.427,-0.793,0.122,-0.7620,-0.3765,9.6720,28.486,34.4,1
6893024,-0.366,-0.671,0.183,-0.7542,-0.3807,9.6271,28.516,34.4,1
6903038,-0.366,-0.671,0.122,-0.7512,-0.3735,9.6708,28.457,34.4,1
6913039,-0.366,-0.610,0.122,-0.7482,-0.3681,9.6786,28.396,34.4,1
6923039,-0.366,-0.671,0.183,-0.7643,-0.3723,9.6552,28.453,34.4,1
6933040,-0.366,-0.732,0.244,-0.7494,-0.3855,9.6780,28.424,34.4,1
6943043,-0.366,-0.671,0.122,-0.7584,-0.3855,9.6654,28.439,34.4,1
6953054,-0.366,-0.671,0.122,-0.7548,-0.3705,9.6606,28.447,34.4,1
6963068,-0.366,-0.732,0.244,-0.7500,-0.3675,9.6804,28.434,34.4,1
6973069,-0.305,-0.793,0.244,-0.7482,-0.3597,9.6594,28.443,34.4,1
6983069,-0.305,-0.732,0.183,-0.7536,-0.3849,9.6528,28.402,34.4,1
6993084,-0.305,-0.671,0.183,-0.7578,-0.3801,9.6726,28.402,34.4,1
7003084,-0.305,-0.793,0.183,-0.7464,-0.3783,9.6750,28.469,34.4,1
7013084,-0.305,-0.793,0.061,-0.7626,-0.3699,9.6768,28.451,34.4,1
7023085,-0.305,-0.732,0.183,-0.7560,-0.3783,9.6804,28.449,34.4,1
7033100,-0.366,-0.793,0.183,-0.7536,-0.3807,9.6744,28.482,34.4,1
7043115,-0.366,-0.732,0.183,-0.7709,-0.3663,9.6642,28.467,34.4,1
7053115,-0.366,-0.671,0.244,-0.7608,-0.3699,9.6642,28.395,34.4,1
7063125,-0.488,-0.732,0.244,-0.7482,-0.3669,9.6355,28.473,34.4,1
7073130,-0.488,-0.671,0.183,-0.7482,-0.3801,9.6367,28.451,34.4,1
7083131,-0.366,-0.732,0.183,-0.7685,-0.3573,9.6642,28.438,34.4,1
7093145,-0.427,-0.732,0.183,-0.7590,-0.3651,9.6618,28.461,34.4,1
7103146,-0.427,-0.732,0.183,-0.7787,-0.3681,9.6636,28.447,34.4,1
7113146,-0.305,-0.732,0.244,-0.7655,-0.3741,9.6570,28.459,34.4,1
7123160,-0.305,-0.671,0.183,-0.7584,-0.3747,9.6630,28.477,34.4,1
7133160,-0.427,-0.671,0.122,-0.7488,-0.3783,9.6690,28.477,34.4,1
7143161,-0.305,-0.671,0.122,-0.7470,-0.3669,9.6678,28.428,34.4,1
7153161,-0.305,-0.671,0.122,-0.7470,-0.3669,9.6678,28.436,34.4,1
7163161,-0.366,-0.732,0.244,-0.7476,-0.3519,9.6570,28.455,34.4,1
7173161,-0.305,-0.793,0.183,-0.7440,-0.3735,9.6582,28.465,34.4,1
7183161,-0.305,-0.732,0.122,-0.7440,-0.3657,9.6516,28.424,34.4,1
7193161,-0.366,-0.732,0.244,-0.7488,-0.3687,9.6983,28.449,34.4,1
7203161,-0.305,-0.671,0.183,-0.7536,-0.3723,9.6606,28.453,34.4,1
7213176,-0.305,-0.671,0.061,-0.7380,-0.3651,9.6618,28.504,34.4,1
7223176,-0.305,-0.671,0.244,-0.7506,-0.3693,9.6810,28.416,34.4,1
7233176,-0.366,-0.732,0.183,-0.7709,-0.3891,9.6540,28.453,34.4,1
7243176,-0.305,-0.793,0.183,-0.7494,-0.3537,9.6666,28.441,34.4,1
7253176,-0.305,-0.732,0.244,-0.7596,-0.3603,9.6570,28.436,34.4,1
7263176,-0.305,-0.732,0.122,-0.7572,-0.3795,9.6959,28.443,34.4,1
7273176,-0.366,-0.671,0.183,-0.7386,-0.3597,9.6750,28.443,34.4,1
7283190,-0.305,-0.671,0.183,-0.7374,-0.3591,9.6672,28.430,34.4,1
7293201,-0.305,-0.732,0.183,-0.7596,-0.3723,9.6732,28.449,34.4,1
7303203,-0.427,-0.671,0.183,-0.7661,-0.3801,9.6708,28.461,34.4,1
7313207,-0.366,-0.732,0.183,-0.7548,-0.3729,9.6672,28.455,34.4,1
7323219,-0.244,-0.732,0.183,-0.7548,-0.3687,9.6690,28.418,34.4,1
7333222,-0.244,-0.671,0.061,-0.7638,-0.3645,9.6319,28.461,34.4,1
7343222,-0.366,-0.732,0.061,-0.7578,-0.3819,9.6738,28.463,34.4,1
7353222,-0.366,-0.793,0.244,-0.7506,-0.3735,9.6552,28.441,34.4,1
7363222,-0.305,-0.732,0.244,-0.7464,-0.3597,9.6762,28.457,34.4,1
7373222,-0.244,-0.610,0.244,-0.7506,-0.3813,9.6564,28.471,34.4,1
7383237,-0.427,-0.671,0.183,-0.7338,-0.3573,9.6648,28.443,34.4,1
7393237,-0.427,-0.732,0.183,-0.7404,-0.3735,9.6660,28.393,34.4,1
7403237,-0.305,-0.671,0.244,-0.7655,-0.3807,9.6804,28.393,34.4,1
7413237,-0.366,-0.732,0.244,-0.7739,-0.3891,9.6672,28.453,34.4,1
7423251,-0.366,-0.793,0.122,-0.7643,-0.3795,9.6672,28.447,34.4,1
7433252,-0.427,-0.671,0.122,-0.7428,-0.3741,9.6720,28.400,34.4,1
7443252,-0.366,-0.671,0.183,-0.7404,-0.3657,9.6588,28.457,34.4,1
7453252,-0.366,-0.732,0.183,-0.7548,-0.3765,9.6624,28.447,34.4,1
7463252,-0.366,-0.610,0.122,-0.7608,-0.3855,9.6714,28.443,34.4,1
7473252,-0.366,-0.732,0.061,-0.7542,-0.3849,9.6768,28.473,34.4,1
7483252,-0.366,-0.671,0.122,-0.7793,-0.3777,9.6678,28.412,34.4,1
7493252,-0.366,-0.671,0.244,-0.7584,-0.3442,9.6654,28.441,34.4,1
7503252,-0.305,-0.732,0.122,-0.7446,-0.3675,9.6833,28.467,34.4,1
7513267,-0.427,-0.671,0.122,-0.7476,-0.3633,9.6774,28.504,34.4,1
7523268,-0.427,-0.671,0.244,-0.7620,-0.3735,9.6810,28.434,34.4,1
7533268,-0.427,-0.610,0.244,-0.7566,-0.3753,9.6732,28.480,34.4,1
7543288,-0.366,-0.671,0.122,-0.7368,-0.3675,9.6564,28.480,34.4,1
7553288,-0.427,-0.671,0.183,-0.7470,-0.3843,9.6636,28.434,34.4,1
7563300,-0.366,-0.732,0.183,-0.7655,-0.3867,9.6929,28.428,34.4,1
7573303,-0.366,-0.732,0.183,-0.7578,-0.3573,9.6570,28.441,34.4,1
7583303,-0.366,-0.671,0.122,-0.7518,-0.3681,9.6618,28.457,34.4,1
7593303,-0.244,-0.732,0.244,-0.7548,-0.3657,9.6696,28.443,34.4,1
7603315,-0.183,-0.671,0.183,-0.7506,-0.3699,9.6600,28.439,34.4,1
7613318,-0.305,-0.732,0.061,-0.7380,-0.3603,9.6696,28.422,34.4,1
7623332,-0.427,-0.671,0.183,-0.7404,-0.3669,9.6588,28.453,34.4,1
7633333,-0.366,-0.732,0.183,-0.7350,-0.3687,9.6690,28.434,34.4,1
7643333,-0.305,-0.671,0.122,-0.7458,-0.3801,9.6672,28.461,34.4,1
7653333,-0.305,-0.732,0.122,-0.7446,-0.3843,9.6666,28.496,34.4,1
7663342,-0.366,-0.671,0.183,-0.7398,-0.3777,9.6684,28.457,34.4,1
7673348,-0.366,-0.671,0.183,-0.7590,-0.3693,9.6385,28.439,34.4,1
7683349,-0.366,-0.793,0.183,-0.7626,-0.3699,9.6672,28.439,34.4,1
7693349,-0.366,-0.671,0.244,-0.7464,-0.3926,9.6738,28.422,34.4,1
7703358,-0.366,-0.671,0.183,-0.7524,-0.3651,9.6678,28.439,34.4,1
7713364,-0.427,-0.732,0.244,-0.7799,-0.3585,9.6540,28.461,34.4,1
7723364,-0.305,-0.671,0.183,-0.7703,-0.3681,9.6780,28.439,34.4,1
7733364,-0.366,-0.671,0.122,-0.7320,-0.3843,9.6833,28.416,34.4,1
7743364,-0.366,-0.793,0.183,-0.7566,-0.3825,9.6810,28.426,34.4,1
7753364,-0.366,-0.732,0.244,-0.7572,-0.3645,9.6594,28.467,34.4,1
7763376,-0.305,-0.671,0.244,-0.7655,-0.3741,9.6804,28.463,34.4,1
7773389,-0.366,-0.671,0.183,-0.7392,-0.3777,9.6810,28.441,34.4,1
7783394,-0.366,-0.671,0.244,-0.7398,-0.3753,9.6744,28.482,34.4,1
7793395,-0.366,-0.671,0.183,-0.7685,-0.3783,9.6666,28.424,34.4,1
7803409,-0.427,-0.610,0.122,-0.7440,-0.3944,9.6612,28.383,34.4,1
7813422,-0.488,-0.671,0.244,-0.7452,-0.3627,9.6564,28.447,34.4,1
7823425,-0.305,-0.732,0.244,-0.7524,-0.3639,9.6839,28.447,34.4,1
7833425,-0.366,-0.732,0.122,-0.7614,-0.3843,9.6756,28.420,34.4,1
7843439,-0.305,-0.671,0.122,-0.7548,-0.3795,9.7031,28.494,34.4,1
7853453,-0.244,-0.671,0.244,-0.7554,-0.3873,9.6929,28.465,34.4,1
7863468,-0.183,-0.671,0.244,-0.7643,-0.3759,9.6816,28.430,34.4,1
7873470,-0.366,-0.671,0.183,-0.7518,-0.3717,9.6708,28.473,34.4,1
7883471,-0.366,-0.732,0.122,-0.7649,-0.3543,9.6810,28.441,34.4,1
7893485,-0.427,-0.732,0.122,-0.7476,-0.3645,9.6666,28.473,34.4,1
7903486,-0.427,-0.671,0.244,-0.7308,-0.3819,9.6726,28.439,34.4,1
7913486,-0.305,-0.732,0.183,-0.7590,-0.3825,9.6438,28.445,34.4,1
7923498,-0.305,-0.671,0.183,-0.7643,-0.3825,9.6833,28.465,34.4,1
7933501,-0.366,-0.732,0.183,-0.7398,-0.3699,9.6648,28.441,34.4,1
7943504,-0.244,-0.732,0.183,-0.7494,-0.3717,9.6606,28.436,34.4,1
7953516,-0.305,-0.732,0.183,-0.7398,-0.3741,9.7007,28.455,34.4,1
7963517,-0.305,-0.671,0.183,-0.7584,-0.3705,9.6810,28.455,34.4,1
7973527,-0.366,-0.671,0.183,-0.7506,-0.3759,9.6522,28.439,34.4,1
7983531,-0.305,-0.793,0.183,-0.7638,-0.3699,9.6798,28.428,34.4,1
7993532,-0.366,-0.732,0.183,-0.7685,-0.3921,9.6810,28.436,34.4,1
8003532,-0.427,-0.671,0.183,-0.7506,-0.3974,9.6654,28.486,34.4,1
8013544,-0.427,-0.671,0.183,-0.7296,-0.3615,9.6606,28.475,34.4,1
8023547,-0.427,-0.793,0.122,-0.7470,-0.3771,9.6522,28.451,34.4,1
8033547,-0.366,-0.854,0.183,-0.7452,-0.3825,9.6552,28.473,34.4,1
8043547,-0.366,-0.732,0.244,-0.7512,-0.3591,9.6426,28.469,34.4,1
8053547,-0.366,-0.610,0.122,-0.7434,-0.3741,9.6732,28.424,34.4,1
8063547,-0.366,-0.732,0.183,-0.7751,-0.3759,9.6636,28.467,34.4,1
8073559,-0.366,-0.732,0.183,-0.7446,-0.3657,9.6474,28.492,34.4,1
8083562,-0.427,-0.671,0.183,-0.7518,-0.3765,9.6774,28.479,34.4,1
8093574,-0.427,-0.671,0.183,-0.7518,-0.3765,9.6774,28.434,34.4,1
8103577,-0.488,-0.671,0.244,-0.7524,-0.3621,9.6750,28.434,34.4,1
8113577,-0.366,-0.732,0.305,-0.7518,-0.3891,9.6744,28.441,34.4,1
8123577,-0.244,-0.732,0.183,-0.7530,-0.3508,9.6774,28.441,34.4,1
8133578,-0.366,-0.671,0.244,-0.7482,-0.3603,9.7055,28.480,34.4,1
8143587,-0.305,-0.671,0.244,-0.7392,-0.3789,9.6744,28.482,34.4,1
8153590,-0.366,-0.732,0.183,-0.7464,-0.3891,9.6768,28.420,34.4,1
8163593,-0.427,-0.732,0.183,-0.7578,-0.3813,9.6798,28.416,34.4,1
8173593,-0.427,-0.732,0.183,-0.7608,-0.3801,9.6690,28.428,34.4,1
8183593,-0.427,-0.732,0.183,-0.7542,-0.3735,9.6750,28.467,34.4,1
8193593,-0.366,-0.671,0.061,-0.7572,-0.3633,9.6798,28.473,34.4,1
8203593,-0.366,-0.610,0.122,-0.7638,-0.3873,9.6522,28.461,34.4,1
8213608,-0.366,-0.671,0.244,-0.7386,-0.3807,9.6444,28.455,34.4,1
8223608,-0.366,-0.671,0.183,-0.7021,-0.3508,9.6552,28.490,34.4,1
8233608,-0.305,-0.610,0.061,-0.7542,-0.3813,9.6887,28.490,34.4,1
8243608,-0.244,-0.671,0.183,-0.7548,-0.4028,9.6965,28.439,34.4,1
8253608,-0.244,-0.732,0.244,-0.7476,-0.3795,9.6822,28.438,34.4,1
8263608,-0.427,-0.793,0.183,-0.7386,-0.3747,9.6690,28.479,34.4,1
8273608,-0.488,-0.732,0.183,-0.7560,-0.3573,9.6666,28.447,34.4,1
8283608,-0.427,-0.671,0.183,-0.7632,-0.3789,9.6612,28.451,34.4,1
8293608,-0.366,-0.732,0.183,-0.7602,-0.3621,9.6666,28.490,34.4,1
8303622,-0.427,-0.671,0.244,-0.7596,-0.3669,9.6881,28.441,34.4,1
8313623,-0.427,-0.671,0.305,-0.7314,-0.3615,9.6720,28.463,34.4,1
8323623,-0.305,-0.610,0.122,-0.7368,-0.3759,9.6558,28.449,34.4,1
8333623,-0.366,-0.671,0.122,-0.7751,-0.3783,9.6624,28.473,34.4,1
8343623,-0.366,-0.854,0.122,-0.7655,-0.3837,9.6780,28.449,34.4,1
8353623,-0.366,-0.854,0.244,-0.7314,-0.3681,9.6648,28.473,34.4,1
8363631,-0.366,-0.793,0.244,-0.7386,-0.3843,9.6786,28.477,34.4,1
8373638,-0.366,-0.732,0.122,-0.7560,-0.3903,9.6630,28.477,34.4,1
8383649,-0.305,-0.732,0.183,-0.7889,-0.3657,9.6678,28.463,34.4,1
8393654,-0.366,-0.732,0.244,-0.7715,-0.3723,9.6720,28.467,34.4,1
8403664,-0.488,-0.671,0.244,-0.7320,-0.3705,9.6540,28.492,34.4,1
8413668,-0.427,-0.671,0.183,-0.7446,-0.3813,9.6618,28.473,34.4,1
8423676,-0.305,-0.671,0.122,-0.7566,-0.3867,9.6486,28.475,34.4,1
8433685,-0.305,-0.732,0.122,-0.7572,-0.3759,9.6654,28.482,34.4,1
8443694,-0.427,-0.671,0.183,-0.7350,-0.3573,9.6618,28.473,34.4,1
8453701,-0.427,-0.732,0.183,-0.7404,-0.3837,9.6804,28.432,34.4,1
8463715,-0.427,-0.732,0.244,-0.7512,-0.3915,9.6684,28.445,34.4,1
8473730,-0.366,-0.732,0.183,-0.7733,-0.3651,9.6654,28.463,34.4,1
8483731,-0.366,-0.671,0.305,-0.7512,-0.3723,9.6606,28.438,34.4,1
8493745,-0.427,-0.732,0.183,-0.7614,-0.3819,9.6684,28.471,34.4,1
8503745,-0.366,-0.793,0.122,-0.7578,-0.3783,9.6612,28.451,34.4,1
8513745,-0.427,-0.610,0.183,-0.7596,-0.3633,9.6816,28.451,34.4,1
8523745,-0.305,-0.671,0.183,-0.7338,-0.3699,9.6720,28.455,34.4,1
8533759,-0.244,-0.793,0.183,-0.7392,-0.3687,9.6672,28.463,34.4,1
8543760,-0.305,-0.793,0.122,-0.7661,-0.3651,9.6774,28.467,34.4,1
8553760,-0.427,-0.671,0.122,-0.7775,-0.3717,9.6792,28.453,34.4,1
8563760,-0.366,-0.610,0.244,-0.7488,-0.3753,9.6666,28.445,34.4,1
8573761,-0.366,-0.793,0.122,-0.7428,-0.3705,9.6576,28.436,34.4,1
8583761,-0.488,-0.610,0.183,-0.7470,-0.3693,9.6768,28.475,34.4,1
8593776,-0.427,-0.671,0.244,-0.7332,-0.3687,9.6690,28.432,34.4,1
8603776,-0.305,-0.671,0.244,-0.7392,-0.3759,9.6696,28.498,34.4,1
8613776,-0.366,-0.671,0.183,-0.7554,-0.3867,9.6654,28.467,34.4,1
8623776,-0.427,-0.671,0.183,-0.7512,-0.3801,9.6827,28.473,34.4,1
8633794,-0.427,-0.732,0.183,-0.7428,-0.3849,9.6714,28.439,34.4,1
8643794,-0.305,-0.732,0.183,-0.7584,-0.3621,9.6726,28.463,34.4,1
8653794,-0.366,-0.732,0.183,-0.7560,-0.3633,9.6732,28.463,34.4,1
8663807,-0.366,-0.610,0.183,-0.7380,-0.3747,9.6810,28.512,34.4,1
8673810,-0.305,-0.732,0.183,-0.7410,-0.3675,9.6798,28.434,34.4,1
8683810,-0.366,-0.732,0.183,-0.7584,-0.3789,9.6702,28.432,34.4,1
8693810,-0.366,-0.671,0.244,-0.7338,-0.3789,9.6534,28.445,34.4,1
8703810,-0.427,-0.732,0.183,-0.7655,-0.3932,9.6696,28.449,34.4,1
8713810,-0.427,-0.732,0.183,-0.7608,-0.3717,9.6863,28.463,34.4,1
8723810,-0.366,-0.732,0.244,-0.7638,-0.3867,9.6816,28.447,34.4,1
8733810,-0.427,-0.671,0.122,-0.7590,-0.3753,9.6678,28.447,34.4,1
8743820,-0.366,-0.671,0.183,-0.7278,-0.3555,9.6630,28.479,34.4,1
8753825,-0.427,-0.732,0.244,-0.7512,-0.3657,9.6750,28.482,34.4,1
8763825,-0.427,-0.732,0.183,-0.7578,-0.3729,9.6492,28.447,34.4,1
8773840,-0.427,-0.732,0.183,-0.7458,-0.3675,9.6690,28.439,34.4,1
8783840,-0.366,-0.671,0.122,-0.7584,-0.3801,9.6696,28.439,34.4,1
8793840,-0.366,-0.671,0.183,-0.7506,-0.3861,9.6666,28.504,34.4,1
8803851,-0.366,-0.671,0.244,-0.7614,-0.3819,9.6792,28.473,34.4,1
8813855,-0.366,-0.610,0.183,-0.7608,-0.3723,9.6702,28.480,34.4,1
8823855,-0.427,-0.732,0.183,-0.7422,-0.3657,9.6450,28.441,34.4,1
8833855,-0.305,-0.732,0.244,-0.7482,-0.3783,9.6576,28.455,34.4,1
8843855,-0.305,-0.793,0.244,-0.7464,-0.3699,9.6768,28.420,34.4,1
8853855,-0.366,-0.793,0.244,-0.7434,-0.3759,9.6756,28.463,34.4,1
8863855,-0.427,-0.793,0.183,-0.7643,-0.3663,9.6822,28.430,34.4,1
8873855,-0.427,-0.793,0.183,-0.7536,-0.3765,9.6845,28.449,34.4,1
8883868,-0.488,-0.732,0.183,-0.7691,-0.3537,9.6810,28.453,34.4,1
8893879,-0.427,-0.671,0.183,-0.7673,-0.3807,9.6355,28.457,34.4,1
8903886,-0.427,-0.671,0.122,-0.7745,-0.3831,9.6606,28.443,34.4,1
8913887,-0.305,-0.610,0.183,-0.7602,-0.3831,9.6678,28.438,34.4,1
8923887,-0.366,-0.671,0.122,-0.7530,-0.3783,9.6738,28.438,34.4,1
8933902,-0.366,-0.732,0.122,-0.7673,-0.3669,9.6666,28.451,34.4,1
8943902,-0.366,-0.732,0.061,-0.7620,-0.3747,9.6732,28.473,34.4,1
8953902,-0.305,-0.671,0.183,-0.7290,-0.3926,9.6648,28.449,34.4,1
8963902,-0.366,-0.671,0.183,-0.7416,-0.4028,9.6666,28.504,34.4,1
8973916,-0.366,-0.793,0.183,-0.7685,-0.3801,9.6702,28.438,34.4,1
8983917,-0.366,-0.671,0.183,-0.7805,-0.3645,9.6516,28.445,34.4,1
8993917,-0.366,-0.671,0.183,-0.7715,-0.3813,9.6756,28.441,34.4,1
9003917,-0.305,-0.793,0.183,-0.7482,-0.3693,9.6678,28.455,34.4,1
9013927,-0.366,-0.732,0.183,-0.7536,-0.3891,9.6690,28.424,34.4,1
9023932,-0.366,-0.732,0.183,-0.7536,-0.3891,9.6690,28.490,34.4,1
9033932,-0.244,-0.671,0.183,-0.7596,-0.3783,9.6594,28.453,34.4,1
9043932,-0.305,-0.732,0.183,-0.7530,-0.3729,9.6636,28.480,34.4,1
9053932,-0.366,-0.732,0.244,-0.7482,-0.3783,9.6857,28.498,34.4,1
9063932,-0.305,-0.732,0.305,-0.7500,-0.3777,9.6804,28.498,34.4,1
9073936,-0.427,-0.732,0.183,-0.7560,-0.3980,9.6810,28.432,34.4,1
9083947,-0.427,-0.671,0.183,-0.7470,-0.3771,9.6618,28.432,34.4,1
9093949,-0.305,-0.671,0.122,-0.7667,-0.3603,9.6708,28.461,34.4,1
9103963,-0.366,-0.671,0.122,-0.7691,-0.3675,9.6684,28.449,34.4,1
9113963,-0.488,-0.793,0.183,-0.7715,-0.3795,9.6786,28.447,34.4,1
9123963,-0.488,-0.793,0.183,-0.7470,-0.3783,9.6714,28.420,34.4,1
9133963,-0.366,-0.793,0.244,-0.7494,-0.3753,9.6738,28.477,34.4,1
9143963,-0.244,-0.732,0.183,-0.7602,-0.3795,9.6911,28.447,34.4,1
9153978,-0.366,-0.671,0.183,-0.7416,-0.3849,9.6678,28.443,34.4,1
9163990,-0.427,-0.732,0.183,-0.7566,-0.3705,9.6612,28.426,34.4,1
9173993,-0.366,-0.732,0.122,-0.7685,-0.3747,9.6654,28.439,34.4,1
9183993,-0.366,-0.732,0.183,-0.7512,-0.3693,9.6827,28.426,34.4,1
9193993,-0.366,-0.671,0.183,-0.7542,-0.3699,9.6845,28.473,34.4,1
9204003,-0.427,-0.671,0.061,-0.7536,-0.3747,9.6606,28.473,34.4,1
9214009,-0.427,-0.671,0.061,-0.7638,-0.3681,9.6367,28.418,34.4,1
9224023,-0.305,-0.671,0.183,-0.7572,-0.3681,9.6666,28.457,34.4,1
9234023,-0.305,-0.671,0.244,-0.7482,-0.3741,9.6750,28.439,34.4,1
9244025,-0.305,-0.671,0.244,-0.7542,-0.3759,9.6642,28.471,34.4,1
9254039,-0.305,-0.732,0.183,-0.7733,-0.3843,9.6726,28.467,34.4,1
9264039,-0.244,-0.671,0.183,-0.7685,-0.3879,9.6343,28.434,34.4,1
9274039,-0.305,-0.732,0.183,-0.7703,-0.3603,9.6690,28.471,34.4,1
9284053,-0.366,-0.732,0.183,-0.7542,-0.3669,9.6965,28.439,34.4,1
9294064,-0.366,-0.732,0.183,-0.7482,-0.3651,9.6881,28.473,34.4,1
9304069,-0.305,-0.671,0.122,-0.7428,-0.3681,9.6720,28.467,34.4,1
9314079,-0.366,-0.610,0.061,-0.7482,-0.3651,9.6630,28.432,34.4,1
9324084,-0.366,-0.610,0.183,-0.7554,-0.3801,9.6738,28.459,34.4,1
9334084,-0.305,-0.732,0.244,-0.7703,-0.3867,9.6684,28.451,34.4,1
9344084,-0.244,-0.671,0.122,-0.7608,-0.3741,9.6696,28.451,34.4,1
9354084,-0.305,-0.671,0.122,-0.7560,-0.3795,9.6672,28.451,34.4,1
9364097,-0.427,-0.610,0.244,-0.7428,-0.3645,9.6684,28.473,34.4,1
9374099,-0.366,-0.671,0.183,-0.7655,-0.3723,9.6600,28.412,34.4,1
9384112,-0.427,-0.671,0.183,-0.7506,-0.3681,9.6522,28.459,34.4,1
9394114,-0.305,-0.732,0.122,-0.7488,-0.3663,9.6642,28.453,34.4,1
9404116,-0.305,-0.732,0.183,-0.7542,-0.3669,9.6726,28.457,34.4,1
9414130,-0.366,-0.732,0.183,-0.7266,-0.3795,9.6708,28.461,34.4,1
9424130,-0.366,-0.732,0.244,-0.7548,-0.3669,9.6594,28.438,34.4,1
9434145,-0.305,-0.732,0.183,-0.7548,-0.3717,9.7001,28.461,34.4,1
9444158,-0.244,-0.610,0.122,-0.7626,-0.3819,9.6845,28.439,34.4,1
9454161,-0.305,-0.671,0.244,-0.7787,-0.3783,9.6594,28.416,34.4,1
9464161,-0.366,-0.671,0.122,-0.7506,-0.3711,9.6947,28.443,34.4,1
9474161,-0.305,-0.671,0.122,-0.7440,-0.3585,9.6780,28.461,34.4,1
9484161,-0.305,-0.732,0.183,-0.7590,-0.3873,9.6690,28.461,34.4,1
9494162,-0.305,-0.671,0.122,-0.7661,-0.3597,9.6839,28.486,34.4,1
9504176,-0.427,-0.732,0.244,-0.7566,-0.3567,9.6780,28.494,34.4,1
9514176,-0.305,-0.671,0.183,-0.7632,-0.3765,9.6558,28.463,34.4,1
9524190,-0.305,-0.610,0.183,-0.7506,-0.3801,9.6804,28.514,34.4,1
9534191,-0.366,-0.671,0.183,-0.7506,-0.3897,9.6414,28.453,34.4,1
9544191,-0.366,-0.671,0.183,-0.7596,-0.3921,9.6696,28.480,34.4,1
9554192,-0.366,-0.671,0.122,-0.7452,-0.3747,9.6768,28.467,34.4,1
9564206,-0.366,-0.732,0.244,-0.7614,-0.3657,9.6804,28.473,34.4,1
9574207,-0.305,-0.732,0.183,-0.7434,-0.3926,9.6612,28.486,34.4,1
9584221,-0.305,-0.671,0.061,-0.7614,-0.3837,9.6804,28.461,34.4,1
9594222,-0.366,-0.671,0.183,-0.7667,-0.3651,9.6893,28.471,34.4,1
9604234,-0.366,-0.671,0.244,-0.7494,-0.3735,9.6714,28.482,34.4,1
9614237,-0.305,-0.732,0.244,-0.7500,-0.3669,9.6851,28.482,34.4,1
9624237,-0.305,-0.610,0.183,-0.7608,-0.3819,9.6672,28.455,34.4,1
9634237,-0.305,-0.671,0.183,-0.7518,-0.3771,9.6414,28.467,34.4,1
9644237,-0.305,-0.671,0.183,-0.7332,-0.3687,9.6708,28.414,34.4,1
9654252,-0.305,-0.732,0.122,-0.7751,-0.3777,9.6714,28.449,34.4,1
9664253,-0.305,-0.793,0.183,-0.7554,-0.3747,9.6696,28.455,34.4,1
9674268,-0.305,-0.732,0.183,-0.7452,-0.4022,9.6666,28.504,34.4,1
9684287,-0.305,-0.732,0.183,-0.7518,-0.3831,9.6516,28.463,34.4,1
9694288,-0.305,-0.732,0.244,-0.7464,-0.3490,9.6600,28.445,34.4,1
9704288,-0.366,-0.610,0.183,-0.7368,-0.3687,9.6935,28.504,34.4,1
9714288,-0.366,-0.732,0.183,-0.7350,-0.3873,9.6582,28.498,34.4,1
9724298,-0.305,-0.732,0.183,-0.7458,-0.3759,9.6654,28.439,34.4,1
9734300,-0.305,-0.732,0.183,-0.7578,-0.3675,9.6941,28.490,34.4,1
9744303,-0.366,-0.732,0.183,-0.7524,-0.3609,9.6756,28.447,34.4,1
9754303,-0.366,-0.732,0.122,-0.7566,-0.3699,9.6816,28.447,34.4,1
9764315,-0.305,-0.671,0.122,-0.7356,-0.3909,9.6498,28.438,34.4,1
9774318,-0.427,-0.671,0.122,-0.7554,-0.3831,9.6720,28.463,34.4,1
9784318,-0.427,-0.732,0.122,-0.7536,-0.3693,9.6594,28.459,34.4,1
9794318,-0.305,-0.732,0.183,-0.7608,-0.3687,9.6654,28.473,34.4,1
9804318,-0.305,-0.671,0.183,-0.7620,-0.3735,9.6540,28.463,34.4,1
9814318,-0.427,-0.732,0.183,-0.7464,-0.3974,9.6618,28.465,34.4,1
9824328,-0.427,-0.732,0.183,-0.7482,-0.3968,9.6600,28.492,34.4,1
9834334,-0.366,-0.732,0.244,-0.7691,-0.3609,9.6744,28.484,34.4,1
9844334,-0.305,-0.732,0.061,-0.7362,-0.3681,9.6642,28.467,34.4,1
9854348,-0.244,-0.671,0.244,-0.7632,-0.3926,9.6732,28.471,34.4,1
9864349,-0.366,-0.732,0.122,-0.7590,-0.3980,9.6738,28.488,34.4,1
9874349,-0.488,-0.671,0.183,-0.7476,-0.3968,9.6636,28.484,34.4,1
9884363,-0.427,-0.671,0.244,-0.7386,-0.3813,9.6780,28.465,34.4,1
9894363,-0.366,-0.610,0.183,-0.7458,-0.3759,9.6594,28.465,34.4,1
9904364,-0.427,-0.732,0.183,-0.7500,-0.3807,9.6774,28.467,34.4,1
9914364,-0.427,-0.732,0.183,-0.7614,-0.3777,9.6738,28.457,34.4,1
9924372,-0.427,-0.732,0.122,-0.7440,-0.3717,9.6780,28.447,34.4,1
9934378,-0.366,-0.732,0.122,-0.7560,-0.3687,9.6666,28.463,34.4,1
9944389,-0.366,-0.671,0.244,-0.7566,-0.3861,9.6756,28.447,34.4,1
9954392,-0.488,-0.671,0.244,-0.7596,-0.3897,9.6648,28.494,34.4,1
9964405,-0.427,-0.732,0.183,-0.7548,-0.3717,9.6504,28.439,34.4,1
9974410,-0.427,-0.732,0.183,-0.7548,-0.3717,9.6504,28.439,34.4,1
9984410,-0.183,-0.793,0.183,-0.7464,-0.3579,9.6714,28.467,34.4,1
9994410,-0.305,-0.732,0.183,-0.7446,-0.3801,9.6678,28.447,34.4,1
10004410,-0.305,-0.671,0.183,-0.7673,-0.3855,9.6684,28.473,34.4,1
10014420,-0.305,-0.671,0.183,-0.7500,-0.3921,9.6480,28.455,34.4,1
10024425,-0.305,-0.671,0.183,-0.7620,-0.3723,9.6552,28.484,34.4,1
10034425,-0.366,-0.610,0.122,-0.7721,-0.3711,9.6869,28.484,34.4,1
10044425,-0.366,-0.732,0.183,-0.7554,-0.3843,9.6816,28.475,34.4,1
10054439,-0.305,-0.671,0.183,-0.7518,-0.3926,9.6720,28.508,34.4,1
10064440,-0.305,-0.732,0.244,-0.7584,-0.3741,9.6714,28.492,34.4,1
10074452,-0.427,-0.793,0.244,-0.7709,-0.3765,9.6863,28.475,34.4,1
10084454,-0.305,-0.793,0.122,-0.7638,-0.3663,9.6744,28.471,34.4,1
10094455,-0.305,-0.732,0.122,-0.7278,-0.3747,9.6696,28.451,34.4,1
10104456,-0.366,-0.732,0.183,-0.7440,-0.3819,9.6768,28.430,34.4,1
10114456,-0.366,-0.671,0.244,-0.7392,-0.3729,9.6684,28.516,34.4,1
10124456,-0.305,-0.732,0.244,-0.7440,-0.3579,9.6792,28.453,34.4,1
10134471,-0.366,-0.732,0.183,-0.7518,-0.3759,9.6839,28.436,34.4,1
10144471,-0.366,-0.732,0.183,-0.7703,-0.3789,9.6624,28.492,34.4,1
10154486,-0.427,-0.671,0.122,-0.7518,-0.3789,9.6774,28.449,34.4,1
10164500,-0.366,-0.610,0.183,-0.7464,-0.3801,9.6582,28.482,34.4,1
10174501,-0.366,-0.671,0.122,-0.7374,-0.3789,9.6546,28.482,34.4,1
10184501,-0.427,-0.732,0.244,-0.7458,-0.3663,9.6762,28.453,34.4,1
10194501,-0.366,-0.732,0.183,-0.7643,-0.3687,9.6552,28.441,34.4,1
10204501,-0.305,-0.732,0.244,-0.7679,-0.3855,9.6702,28.477,34.4,1
10214501,-0.366,-0.732,0.183,-0.7530,-0.3891,9.6642,28.422,34.4,1
10224501,-0.366,-0.671,0.122,-0.7518,-0.3813,9.6672,28.473,34.4,1
10234502,-0.366,-0.671,0.122,-0.7566,-0.3879,9.6935,28.486,34.4,1
10244516,-0.427,-0.732,0.122,-0.7763,-0.3932,9.6738,28.455,34.4,1
10254516,-0.244,-0.671,0.183,-0.7398,-0.3879,9.6851,28.441,34.4,1
10264516,-0.366,-0.671,0.183,-0.7524,-0.3765,9.6792,28.467,34.4,1
10274517,-0.366,-0.671,0.244,-0.7596,-0.3729,9.6798,28.498,34.4,1
10284532,-0.366,-0.732,0.183,-0.7506,-0.3813,9.6720,28.473,34.4,1
10294532,-0.427,-0.732,0.122,-0.7566,-0.3771,9.6851,28.500,34.4,1
10304543,-0.366,-0.671,0.183,-0.7554,-0.3777,9.6851,28.500,34.4,1
10314547,-0.366,-0.671,0.183,-0.7326,-0.3867,9.6786,28.475,34.4,1
10324547,-0.366,-0.671,0.122,-0.7416,-0.3771,9.6762,28.500,34.4,1
10334547,-0.366,-0.732,0.183,-0.7458,-0.3735,9.6642,28.428,34.4,1
10344547,-0.366,-0.732,0.183,-0.7494,-0.3801,9.6822,28.455,34.4,1
10354561,-0.305,-0.732,0.183,-0.7721,-0.3921,9.6833,28.445,34.4,1
10364562,-0.366,-0.671,0.244,-0.7614,-0.3717,9.6570,28.492,34.4,1
10374562,-0.488,-0.732,0.122,-0.7620,-0.3891,9.6660,28.504,34.4,1
10384562,-0.427,-0.732,0.183,-0.7572,-0.3843,9.6528,28.438,34.4,1
10394562,-0.427,-0.732,0.244,-0.7476,-0.3855,9.6624,28.473,34.4,1
10404562,-0.366,-0.732,0.183,-0.7428,-0.3759,9.6792,28.459,34.4,1
10414572,-0.244,-0.732,0.122,-0.7410,-0.3843,9.6786,28.465,34.4,1
10424577,-0.366,-0.671,0.183,-0.7655,-0.3639,9.6468,28.463,34.4,1
10434578,-0.488,-0.610,0.183,-0.7691,-0.3903,9.6971,28.469,34.4,1
10444593,-0.427,-0.671,0.122,-0.7482,-0.3867,9.6833,28.469,34.4,1
10454593,-0.366,-0.732,0.183,-0.7602,-0.3801,9.6498,28.473,34.4,1
10464593,-0.366,-0.732,0.244,-0.7620,-0.3759,9.6588,28.482,34.4,1
10474608,-0.305,-0.732,0.183,-0.7230,-0.3986,9.6732,28.473,34.4,1
10484608,-0.366,-0.610,0.305,-0.7410,-0.3747,9.6666,28.490,34.4,1
10494608,-0.305,-0.610,0.183,-0.7643,-0.3729,9.6959,28.488,34.4,1
10504608,-0.244,-0.671,0.122,-0.7566,-0.3753,9.6833,28.473,34.4,1
10514608,-0.366,-0.671,0.183,-0.7655,-0.3861,9.6606,28.443,34.4,1
10524608,-0.366,-0.610,0.183,-0.7524,-0.3795,9.6582,28.459,34.4,1
10534608,-0.366,-0.671,0.183,-0.7596,-0.3855,9.6881,28.467,34.4,1
10544608,-0.427,-0.732,0.122,-0.7626,-0.3771,9.6666,28.461,34.4,1
10554608,-0.305,-0.732,0.244,-0.7518,-0.3897,9.6756,28.453,34.4,1
10564622,-0.305,-0.732,0.244,-0.7374,-0.3753,9.6516,28.498,34.4,1
10574623,-0.244,-0.793,0.122,-0.7566,-0.3765,9.6774,28.463,34.4,1
10584623,-0.244,-0.732,0.183,-0.7500,-0.3873,9.6612,28.463,34.4,1
10594623,-0.305,-0.732,0.244,-0.7482,-0.3783,9.6666,28.445,34.4,1
10604623,-0.366,-0.793,0.183,-0.7428,-0.3831,9.6839,28.469,34.4,1
10614623,-0.305,-0.671,0.122,-0.7590,-0.3687,9.6804,28.467,34.4,1
10624623,-0.305,-0.732,0.244,-0.7458,-0.3795,9.6917,28.467,34.4,1
10634623,-0.244,-0.732,0.183,-0.7416,-0.3956,9.6582,28.469,34.4,1
10644623,-0.366,-0.793,0.122,-0.7422,-0.3897,9.6666,28.457,34.4,1
10654623,-0.427,-0.732,0.183,-0.7338,-0.3789,9.6696,28.504,34.4,1
10664623,-0.427,-0.732,0.122,-0.7596,-0.3801,9.6660,28.504,34.4,1
10674637,-0.366,-0.732,0.122,-0.7775,-0.3777,9.6798,28.465,34.4,1
10684639,-0.366,-0.732,0.183,-0.7500,-0.4028,9.6606,28.436,34.4,1
10694654,-0.366,-0.671,0.244,-0.7380,-0.4046,9.6833,28.432,34.4,1
10704654,-0.305,-0.732,0.122,-0.7392,-0.3915,9.6768,28.488,34.4,1
10714654,-0.366,-0.732,0.122,-0.7530,-0.3855,9.6684,28.473,34.4,1
10724669,-0.427,-0.671,0.183,-0.7452,-0.3843,9.6720,28.473,34.4,1
10734669,-0.366,-0.671,0.305,-0.7416,-0.3825,9.6600,28.506,34.4,1
10744669,-0.305,-0.671,0.122,-0.7518,-0.4028,9.6708,28.463,34.4,1
10754681,-0.366,-0.732,0.061,-0.7584,-0.3879,9.6552,28.422,34.4,1
10764684,-0.427,-0.732,0.183,-0.7679,-0.3825,9.6474,28.455,34.4,1
10774684,-0.427,-0.671,0.183,-0.7404,-0.3807,9.6438,28.439,34.4,1
10784684,-0.366,-0.671,0.183,-0.7626,-0.3633,9.6618,28.475,34.4,1
10794698,-0.366,-0.732,0.122,-0.7649,-0.3849,9.6552,28.508,34.4,1
10804710,-0.305,-0.732,0.183,-0.7614,-0.3903,9.6522,28.506,34.4,1
10814715,-0.366,-0.671,0.122,-0.7440,-0.3885,9.6762,28.457,34.4,1
10824725,-0.488,-0.671,0.183,-0.7488,-0.3837,9.6833,28.471,34.4,1
10834727,-0.305,-0.610,0.122,-0.7548,-0.3855,9.6947,28.453,34.4,1
10844737,-0.305,-0.671,0.122,-0.7578,-0.3813,9.6582,28.473,34.4,1
10854745,-0.305,-0.671,0.305,-0.7500,-0.3723,9.6660,28.473,34.4,1
10864746,-0.427,-0.671,0.244,-0.7488,-0.3891,9.6750,28.510,34.4,1
10874760,-0.366,-0.549,0.183,-0.7488,-0.3801,9.6522,28.484,34.4,1
10884775,-0.366,-0.671,0.183,-0.7608,-0.3699,9.6546,28.443,34.4,1
10894777,-0.366,-0.732,0.122,-0.7620,-0.3932,9.6600,28.455,34.4,1
10904795,-0.305,-0.671,0.244,-0.7380,-0.3849,9.6678,28.496,34.4,1
10914795,-0.305,-0.671,0.244,-0.7380,-0.3849,9.6678,28.494,34.4,1
10924795,-0.427,-0.732,0.244,-0.7584,-0.3681,9.6792,28.473,34.4,1
10934796,-0.305,-0.732,0.183,-0.7638,-0.3717,9.6959,28.441,34.4,1
10944809,-0.305,-0.732,0.183,-0.7530,-0.3729,9.6983,28.418,34.4,1
10954822,-0.366,-0.732,0.183,-0.7446,-0.3789,9.6887,28.496,34.4,1
10964825,-0.427,-0.671,0.244,-0.7632,-0.3723,9.6810,28.465,34.4,1
10974825,-0.305,-0.793,0.183,-0.7608,-0.3777,9.6893,28.473,34.4,1
10984840,-0.366,-0.793,0.122,-0.7554,-0.3735,9.6762,28.438,34.4,1
10994840,-0.305,-0.732,0.183,-0.7775,-0.3921,9.6714,28.438,34.4,1
11004841,-0.427,-0.671,0.183,-0.7602,-0.3735,9.6684,28.453,34.4,1
11014841,-0.427,-0.671,0.183,-0.7596,-0.3657,9.6744,28.443,34.4,1
11024841,-0.305,-0.610,0.183,-0.7638,-0.3831,9.6576,28.459,34.4,1
11034855,-0.366,-0.671,0.244,-0.7643,-0.3891,9.6672,28.439,34.4,1
11044855,-0.366,-0.671,0.183,-0.7398,-0.3861,9.6492,28.467,34.4,1
11054855,-0.305,-0.671,0.122,-0.7608,-0.3921,9.6313,28.473,34.4,1
11064856,-0.366,-0.671,0.122,-0.7512,-0.3675,9.6798,28.475,34.4,1
11074856,-0.366,-0.671,0.183,-0.7422,-0.3837,9.6929,28.498,34.4,1
11084871,-0.366,-0.610,0.183,-0.7434,-0.3717,9.6708,28.461,34.4,1
11094871,-0.366,-0.671,0.183,-0.7446,-0.3729,9.6540,28.504,34.4,1
11104871,-0.366,-0.732,0.122,-0.7895,-0.3849,9.6630,28.471,34.4,1
11114871,-0.244,-0.793,0.183,-0.7608,-0.3741,9.6804,28.434,34.4,1
11124871,-0.366,-0.671,0.244,-0.7524,-0.3723,9.6684,28.439,34.4,1
11134871,-0.427,-0.671,0.244,-0.7554,-0.3669,9.6875,28.439,34.4,1
11144885,-0.305,-0.610,0.183,-0.7398,-0.3765,9.6756,28.469,34.4,1
11154886,-0.366,-0.671,0.122,-0.7566,-0.3950,9.6654,28.471,34.4,1
11164887,-0.244,-0.732,0.183,-0.7715,-0.3897,9.6564,28.430,34.4,1
11174902,-0.305,-0.671,0.122,-0.7506,-0.3777,9.6588,28.473,34.4,1
11184902,-0.305,-0.793,0.183,-0.7518,-0.3789,9.6768,28.455,34.4,1
11194902,-0.366,-0.671,0.183,-0.7584,-0.3603,9.6738,28.514,34.4,1
11204917,-0.366,-0.671,0.183,-0.7626,-0.3627,9.6648,28.447,34.4,1
11214931,-0.366,-0.732,0.061,-0.7590,-0.3813,9.6816,28.508,34.4,1
11224932,-0.366,-0.732,0.183,-0.7590,-0.3675,9.6804,28.494,34.4,1
11234932,-0.366,-0.671,0.244,-0.7685,-0.3765,9.6756,28.490,34.4,1
11244932,-0.427,-0.732,0.122,-0.7584,-0.3956,9.6504,28.451,34.4,1
11254932,-0.427,-0.732,0.183,-0.7524,-0.3735,9.6456,28.479,34.4,1
11264932,-0.244,-0.671,0.183,-0.7638,-0.3753,9.6845,28.449,34.4,1
11274932,-0.244,-0.793,0.244,-0.7512,-0.3801,9.6744,28.449,34.4,1
11284933,-0.305,-0.732,0.183,-0.7643,-0.3699,9.6756,28.486,34.4,1
11294947,-0.427,-0.610,0.183,-0.7320,-0.3765,9.6516,28.480,34.4,1
11304947,-0.366,-0.671,0.183,-0.7614,-0.3753,9.6510,28.438,34.4,1
11314947,-0.366,-0.671,0.244,-0.7638,-0.3705,9.6600,28.451,34.4,1
11324947,-0.366,-0.671,0.244,-0.7458,-0.3717,9.6851,28.486,34.4,1
11334948,-0.305,-0.732,0.183,-0.7536,-0.3543,9.6833,28.443,34.4,1
11344963,-0.305,-0.732,0.122,-0.7608,-0.3621,9.6995,28.432,34.4,1
11354977,-0.366,-0.732,0.183,-0.7500,-0.3741,9.6684,28.467,34.4,1
11364978,-0.305,-0.732,0.183,-0.7428,-0.3621,9.6648,28.438,34.4,1
11374990,-0.366,-0.732,0.183,-0.7518,-0.3717,9.6810,28.465,34.4,1
11384993,-0.488,-0.732,0.183,-0.7560,-0.3549,9.6702,28.500,34.4,1
11395003,-0.366,-0.671,0.183,-0.7673,-0.3741,9.6564,28.449,34.4,1
11405009,-0.488,-0.732,0.244,-0.7548,-0.3663,9.6738,28.496,34.4,1
11415024,-0.488,-0.671,0.244,-0.7566,-0.3627,9.6606,28.496,34.4,1
11425034,-0.366,-0.671,0.122,-0.7745,-0.3508,9.6744,28.463,34.4,1
11435039,-0.366,-0.671,0.122,-0.7572,-0.3585,9.6768,28.475,34.4,1
11445051,-0.305,-0.671,0.183,-0.7530,-0.3597,9.6588,28.496,34.4,1
11455054,-0.427,-0.671,0.183,-0.7482,-0.3525,9.6522,28.461,34.4,1
11465054,-0.488,-0.671,0.183,-0.7566,-0.3513,9.6630,28.455,34.4,1
11475068,-0.305,-0.610,0.183,-0.7512,-0.3687,9.6468,28.479,34.4,1
11485069,-0.366,-0.732,0.122,-0.7632,-0.3675,9.6528,28.451,34.4,1
11495069,-0.366,-0.732,0.122,-0.7362,-0.3669,9.6786,28.463,34.4,1
11505069,-0.366,-0.671,0.244,-0.7536,-0.3555,9.6636,28.469,34.4,1
11515069,-0.244,-0.793,0.183,-0.7572,-0.3502,9.6756,28.504,34.4,1
11525069,-0.305,-0.732,0.122,-0.7338,-0.3711,9.6426,28.441,34.4,1
11535069,-0.427,-0.732,0.183,-0.7392,-0.3765,9.6827,28.447,34.4,1
11545079,-0.427,-0.671,0.183,-0.7506,-0.3597,9.6792,28.471,34.4,1
11555085,-0.305,-0.671,0.122,-0.7626,-0.3525,9.6690,28.471,34.4,1
11565085,-0.366,-0.671,0.122,-0.7667,-0.3472,9.6738,28.443,34.4,1
11575099,-0.366,-0.793,0.183,-0.7506,-0.3382,9.6588,28.484,34.4,1
11585108,-0.305,-0.793,0.244,-0.7452,-0.3454,9.6576,28.498,34.4,1
11595115,-0.305,-0.732,0.122,-0.7482,-0.3741,9.6708,28.436,34.4,1
11605115,-0.244,-0.671,0.183,-0.7506,-0.3603,9.6762,28.473,34.4,1
11615115,-0.305,-0.732,0.244,-0.7548,-0.3490,9.6582,28.443,34.4,1
11625127,-0.366,-0.793,0.183,-0.7260,-0.3555,9.6462,28.469,34.4,1
11635130,-0.366,-0.732,0.183,-0.7649,-0.3639,9.6600,28.441,34.4,1
11645130,-0.366,-0.671,0.122,-0.7817,-0.3675,9.6738,28.457,34.4,1
11655130,-0.427,-0.610,0.061,-0.7596,-0.3531,9.6786,28.447,34.4,1
11665130,-0.366,-0.793,0.183,-0.7404,-0.3466,9.6714,28.441,34.4,1
11675131,-0.305,-0.671,0.183,-0.7404,-0.3615,9.6666,28.467,34.4,1
11685146,-0.366,-0.671,0.183,-0.7434,-0.3502,9.6540,28.467,34.4,1
11695161,-0.366,-0.671,0.122,-0.7566,-0.3537,9.6917,28.439,34.4,1
11705161,-0.366,-0.732,0.122,-0.7554,-0.3484,9.6588,28.492,34.4,1
11715171,-0.305,-0.732,0.183,-0.7638,-0.3591,9.6636,28.465,34.4,1
11725176,-0.366,-0.610,0.122,-0.7488,-0.3663,9.6666,28.516,34.4,1
11735176,-0.427,-0.671,0.183,-0.7326,-0.3525,9.6654,28.469,34.4,1
11745176,-0.366,-0.793,0.122,-0.7344,-0.3633,9.6732,28.443,34.4,1
11755176,-0.305,-0.671,0.122,-0.7548,-0.3675,9.6768,28.486,34.4,1
11765188,-0.305,-0.671,0.183,-0.7452,-0.3903,9.6582,28.457,34.4,1
11775191,-0.366,-0.732,0.061,-0.7392,-0.3645,9.6576,28.461,34.4,1
11785191,-0.366,-0.732,0.122,-0.7584,-0.3519,9.6420,28.432,34.4,1
11795191,-0.366,-0.732,0.183,-0.7482,-0.3513,9.6600,28.480,34.4,1
11805191,-0.305,-0.671,0.183,-0.7314,-0.3549,9.6762,28.482,34.4,1
11815191,-0.427,-0.793,0.183,-0.7314,-0.3508,9.6594,28.471,34.4,1
11825191,-0.427,-0.732,0.183,-0.7542,-0.3525,9.6540,28.471,34.4,1
11835192,-0.366,-0.732,0.183,-0.7428,-0.3543,9.6660,28.473,34.4,1
11845206,-0.305,-0.671,0.183,-0.7302,-0.3591,9.6672,28.473,34.4,1
11855207,-0.305,-0.671,0.183,-0.7302,-0.3591,9.6672,28.463,34.4,1
11865222,-0.427,-0.671,0.122,-0.7416,-0.3466,9.6678,28.500,34.4,1
11875222,-0.366,-0.671,0.244,-0.7632,-0.3513,9.6738,28.473,34.4,1
11885236,-0.427,-0.732,0.183,-0.7655,-0.3316,9.6540,28.477,34.4,1
11895237,-0.427,-0.793,0.244,-0.7488,-0.3519,9.6696,28.498,34.4,1
11905249,-0.427,-0.854,0.183,-0.7422,-0.3508,9.6690,28.506,34.4,1
11915251,-0.427,-0.732,0.122,-0.7506,-0.3627,9.6486,28.473,34.4,1
11925251,-0.366,-0.610,0.122,-0.7494,-0.3519,9.6744,28.441,34.4,1
11935253,-0.427,-0.671,0.183,-0.7626,-0.3388,9.6869,28.467,34.4,1
11945262,-0.366,-0.610,0.183,-0.7470,-0.3364,9.6863,28.479,34.4,1
11955267,-0.366,-0.854,0.183,-0.7578,-0.3609,9.6594,28.465,34.4,1
11965268,-0.366,-0.671,0.183,-0.7667,-0.3454,9.6588,28.465,34.4,1
11975288,-0.366,-0.732,0.183,-0.7458,-0.3370,9.6869,28.496,34.4,1
11985288,-0.366,-0.793,0.183,-0.7404,-0.3555,9.6953,28.475,34.4,1
11995302,-0.366,-0.732,0.244,-0.7626,-0.3436,9.6810,28.461,34.4,1
12005303,-0.305,-0.732,0.183,-0.7602,-0.3370,9.6588,28.508,34.4,1
12015313,-0.244,-0.610,0.183,-0.7602,-0.3657,9.6833,28.484,34.4,1
12025317,-0.366,-0.671,0.183,-0.7817,-0.3639,9.6636,28.471,34.4,1
12035319,-0.366,-0.671,0.183,-0.7584,-0.3615,9.6486,28.477,34.4,1
12045333,-0.427,-0.671,0.183,-0.7404,-0.3502,9.6558,28.426,34.4,1
12055334,-0.488,-0.610,0.183,-0.7859,-0.3513,9.6708,28.465,34.4,1
12065334,-0.366,-0.671,0.244,-0.7685,-0.3519,9.6690,28.457,34.4,1
12075334,-0.427,-0.671,0.244,-0.7362,-0.3496,9.6756,28.477,34.4,1
12085348,-0.366,-0.732,0.183,-0.7608,-0.3436,9.6905,28.484,34.4,1
12095349,-0.305,-0.732,0.183,-0.7596,-0.3549,9.6744,28.465,34.4,1
12105361,-0.366,-0.671,0.183,-0.7614,-0.3591,9.6672,28.465,34.4,1
12115364,-0.427,-0.671,0.122,-0.7566,-0.3621,9.6792,28.480,34.4,1
12125365,-0.366,-0.671,0.122,-0.7464,-0.3508,9.6678,28.416,34.4,1
12135379,-0.366,-0.610,0.122,-0.7590,-0.3537,9.6618,28.467,34.4,1
12145380,-0.488,-0.671,0.183,-0.7542,-0.3591,9.6600,28.488,34.4,1
12155394,-0.427,-0.732,0.122,-0.7518,-0.3400,9.6462,28.502,34.4,1
12165394,-0.366,-0.732,0.122,-0.7667,-0.3663,9.6857,28.492,34.4,1
12175405,-0.366,-0.671,0.122,-0.7374,-0.3579,9.6971,28.439,34.4,1
12185409,-0.366,-0.671,0.183,-0.7548,-0.3496,9.6762,28.479,34.4,1
12195410,-0.366,-0.610,0.183,-0.7596,-0.3424,9.6786,28.486,34.4,1
12205425,-0.305,-0.610,0.122,-0.7590,-0.3603,9.6845,28.461,34.4,1
12215425,-0.305,-0.793,0.122,-0.7458,-0.3645,9.6720,28.422,34.4,1
12225425,-0.366,-0.732,0.183,-0.7494,-0.3579,9.6792,28.457,34.4,1
12235439,-0.427,-0.671,0.183,-0.7326,-0.3699,9.6863,28.459,34.4,1
12245440,-0.427,-0.671,0.244,-0.7266,-0.3454,9.6516,28.459,34.4,1
12255441,-0.366,-0.732,0.183,-0.7320,-0.3466,9.6546,28.445,34.4,1
12265455,-0.427,-0.732,0.183,-0.7715,-0.3424,9.6654,28.473,34.4,1
12275455,-0.549,-0.610,0.183,-0.7470,-0.3531,9.6816,28.469,34.4,1
12285455,-0.427,-0.732,0.122,-0.7476,-0.3669,9.6438,28.402,34.4,1
12295466,-0.305,-0.732,0.122,-0.7518,-0.3633,9.6391,28.477,34.4,1
12305468,-0.305,-0.732,0.244,-0.7536,-0.3621,9.6714,28.439,34.4,1
12315471,-0.366,-0.793,0.244,-0.7703,-0.3418,9.6732,28.402,34.4,1
12325471,-0.366,-0.671,0.122,-0.7500,-0.3448,9.6720,28.502,34.4,1
12335471,-0.427,-0.671,0.183,-0.7326,-0.3460,9.6684,28.467,34.4,1
12345471,-0.427,-0.671,0.183,-0.7428,-0.3681,9.6576,28.457,34.4,1
12355471,-0.305,-0.732,0.183,-0.7590,-0.3496,9.6869,28.430,34.4,1
12365471,-0.305,-0.732,0.122,-0.7494,-0.3555,9.6636,28.490,34.4,1
12375471,-0.366,-0.671,0.183,-0.7422,-0.3597,9.6672,28.490,34.4,1
12385481,-0.366,-0.671,0.183,-0.7422,-0.3400,9.6857,28.500,34.4,1
12395486,-0.244,-0.671,0.183,-0.7338,-0.3484,9.6594,28.490,34.4,1
12405500,-0.305,-0.671,0.244,-0.7476,-0.3567,9.6720,28.449,34.4,1
12415513,-0.366,-0.671,0.244,-0.7542,-0.3376,9.6528,28.451,34.4,1
12425516,-0.366,-0.732,0.183,-0.7584,-0.3519,9.6750,28.467,34.4,1
12435516,-0.305,-0.671,0.183,-0.7380,-0.3645,9.6648,28.473,34.4,1
12445517,-0.244,-0.610,0.183,-0.7183,-0.3531,9.6720,28.461,34.4,1
12455529,-0.366,-0.671,0.183,-0.7470,-0.3603,9.6420,28.475,34.4,1
12465532,-0.366,-0.732,0.122,-0.7482,-0.3681,9.6486,28.439,34.4,1
12475532,-0.366,-0.671,0.183,-0.7512,-0.3513,9.6612,28.467,34.4,1
12485532,-0.427,-0.671,0.244,-0.7566,-0.3508,9.6510,28.490,34.4,1
12495532,-0.305,-0.671,0.183,-0.7470,-0.3861,9.6780,28.473,34.4,1
12505532,-0.366,-0.671,0.183,-0.7482,-0.3663,9.6612,28.486,34.4,1
12515532,-0.366,-0.671,0.122,-0.7434,-0.3711,9.6762,28.486,34.4,1
12525542,-0.305,-0.732,0.183,-0.7356,-0.3555,9.6744,28.494,34.4,1
12535547,-0.366,-0.732,0.183,-0.7524,-0.3741,9.6660,28.482,34.4,1
12545559,-0.427,-0.732,0.183,-0.7638,-0.3370,9.6720,28.484,34.4,1
12555562,-0.366,-0.732,0.183,-0.7440,-0.3573,9.6923,28.480,34.4,1
12565576,-0.305,-0.671,0.122,-0.7213,-0.3633,9.6672,28.490,34.4,1
12575589,-0.244,-0.732,0.122,-0.7428,-0.3675,9.6947,28.525,34.4,1
12585593,-0.366,-0.671,0.122,-0.7739,-0.3579,9.6810,28.480,34.4,1
12595608,-0.366,-0.671,0.061,-0.7542,-0.3460,9.6564,28.459,34.4,1
12605608,-0.366,-0.610,0.183,-0.7536,-0.3711,9.6935,28.459,34.4,1
12615608,-0.366,-0.732,0.244,-0.7296,-0.3621,9.6762,28.473,34.4,1
12625608,-0.305,-0.854,0.122,-0.7153,-0.3466,9.6540,28.477,34.4,1
12635608,-0.305,-0.671,0.061,-0.7572,-0.3777,9.6851,28.480,34.4,1
12645618,-0.183,-0.549,0.122,-0.7817,-0.3687,9.6768,28.502,34.4,1
12655622,-0.366,-0.610,0.244,-0.7655,-0.3537,9.6690,28.502,34.4,1
12665623,-0.427,-0.610,0.183,-0.7422,-0.3837,9.6636,28.496,34.4,1
12675623,-0.366,-0.671,0.122,-0.7673,-0.3771,9.6672,28.461,34.4,1
12685623,-0.366,-0.732,0.183,-0.7434,-0.3597,9.6833,28.480,34.4,1
12695635,-0.427,-0.732,0.183,-0.7626,-0.3561,9.6851,28.445,34.4,1
12705639,-0.305,-0.732,0.183,-0.7452,-0.3609,9.6822,28.459,34.4,1
12715654,-0.366,-0.732,0.183,-0.7434,-0.3663,9.6522,28.475,34.4,1
12725664,-0.427,-0.671,0.244,-0.7673,-0.3496,9.6666,28.449,34.4,1
12735669,-0.427,-0.610,0.244,-0.7596,-0.3615,9.6678,28.484,34.4,1
12745669,-0.366,-0.610,0.244,-0.7494,-0.3585,9.6630,28.480,34.4,1
12755679,-0.366,-0.732,0.122,-0.7542,-0.3543,9.6810,28.439,34.4,1
12765684,-0.366,-0.793,0.122,-0.7320,-0.3585,9.6432,28.486,34.4,1
12775684,-0.427,-0.732,0.122,-0.7446,-0.3591,9.6588,28.488,34.4,1
12785685,-0.427,-0.671,0.122,-0.7542,-0.3573,9.6684,28.492,34.4,1
12795699,-0.427,-0.671,0.183,-0.7566,-0.3573,9.6696,28.492,34.4,1
12805699,-0.427,-0.671,0.183,-0.7566,-0.3573,9.6696,28.445,34.4,1
12815699,-0.488,-0.732,0.122,-0.7626,-0.3669,9.6660,28.496,34.4,1
12825699,-0.366,-0.732,0.122,-0.7584,-0.3579,9.6468,28.434,34.4,1
12835700,-0.305,-0.793,0.122,-0.7476,-0.3430,9.6462,28.475,34.4,1
12845714,-0.366,-0.732,0.122,-0.7452,-0.3687,9.6798,28.453,34.4,1
12855715,-0.366,-0.671,0.183,-0.7338,-0.3735,9.6690,28.492,34.4,1
12865715,-0.427,-0.732,0.244,-0.7560,-0.3657,9.6827,28.494,34.4,1
12875715,-0.427,-0.732,0.183,-0.7452,-0.3687,9.6678,28.482,34.4,1
12885729,-0.366,-0.732,0.122,-0.7266,-0.3412,9.6756,28.469,34.4,1
12895731,-0.366,-0.732,0.183,-0.7482,-0.3466,9.6672,28.463,34.4,1
12905742,-0.366,-0.732,0.183,-0.7440,-0.3657,9.6720,28.521,34.4,1
12915745,-0.488,-0.671,0.183,-0.7667,-0.3513,9.6833,28.463,34.4,1
12925745,-0.427,-0.671,0.244,-0.7548,-0.3513,9.6702,28.482,34.4,1
12935745,-0.305,-0.671,0.122,-0.7332,-0.3537,9.6660,28.482,34.4,1
12945746,-0.366,-0.732,0.122,-0.7632,-0.3591,9.6546,28.410,34.4,1
12955761,-0.366,-0.732,0.183,-0.7679,-0.3585,9.6486,28.463,34.4,1
12965775,-0.305,-0.732,0.122,-0.7542,-0.3753,9.6612,28.438,34.4,1
12975776,-0.305,-0.732,0.183,-0.7530,-0.3513,9.6845,28.473,34.4,1
12985776,-0.366,-0.671,0.122,-0.7661,-0.3603,9.6804,28.486,34.4,1
12995794,-0.366,-0.671,0.183,-0.7566,-0.3555,9.6576,28.461,34.4,1
13005794,-0.305,-0.610,0.122,-0.7542,-0.3508,9.6678,28.461,34.4,1
13015795,-0.366,-0.671,0.061,-0.7578,-0.3669,9.6618,28.504,34.4,1
13025810,-0.305,-0.732,0.122,-0.7584,-0.3531,9.6678,28.514,34.4,1
13035810,-0.305,-0.671,0.183,-0.7518,-0.3525,9.6504,28.508,34.4,1
13045810,-0.427,-0.671,0.305,-0.7667,-0.3585,9.6510,28.469,34.4,1
13055810,-0.366,-0.732,0.244,-0.7823,-0.3609,9.6714,28.525,34.4,1
13065810,-0.366,-0.732,0.183,-0.7727,-0.3502,9.6887,28.525,34.4,1
13075810,-0.366,-0.671,0.122,-0.7554,-0.3466,9.6690,28.461,34.4,1
13085810,-0.366,-0.732,0.122,-0.7548,-0.3633,9.6582,28.482,34.4,1
13095810,-0.244,-0.732,0.122,-0.7763,-0.3735,9.6726,28.465,34.4,1
13105810,-0.244,-0.671,0.122,-0.7566,-0.3795,9.6456,28.479,34.4,1
13115810,-0.305,-0.610,0.183,-0.7530,-0.3591,9.6702,28.477,34.4,1
13125810,-0.305,-0.732,0.183,-0.7536,-0.3621,9.6792,28.426,34.4,1
13135822,-0.366,-0.732,0.244,-0.7464,-0.3543,9.6642,28.480,34.4,1
13145822,-0.427,-0.793,0.061,-0.7524,-0.3502,9.6696,28.459,34.4,1
13155825,-0.488,-0.732,0.061,-0.7440,-0.3591,9.6881,28.508,34.4,1
13165840,-0.366,-0.671,0.183,-0.7320,-0.3525,9.6660,28.473,34.4,1
13175841,-0.366,-0.671,0.244,-0.7620,-0.3615,9.6648,28.473,34.4,1
13185856,-0.305,-0.610,0.183,-0.7560,-0.3513,9.6720,28.459,34.4,1
13195857,-0.244,-0.671,0.183,-0.7434,-0.3430,9.6893,28.443,34.4,1
13205872,-0.427,-0.732,0.183,-0.7530,-0.3735,9.6792,28.443,34.4,1
13215886,-0.427,-0.610,0.183,-0.7560,-0.3795,9.6845,28.504,34.4,1
13225886,-0.366,-0.610,0.183,-0.7416,-0.3651,9.6863,28.494,34.4,1
13235886,-0.305,-0.732,0.122,-0.7841,-0.3699,9.6600,28.477,34.4,1
13245886,-0.366,-0.671,0.183,-0.7643,-0.3442,9.6875,28.461,34.4,1
13255886,-0.305,-0.671,0.305,-0.7548,-0.3741,9.6606,28.443,34.4,1
13265886,-0.305,-0.732,0.305,-0.7434,-0.3603,9.6510,28.473,34.4,1
13275890,-0.305,-0.610,0.183,-0.7566,-0.3663,9.6887,28.449,34.4,1
13285902,-0.366,-0.732,0.183,-0.7632,-0.3765,9.6804,28.508,34.4,1
13295914,-0.427,-0.793,0.122,-0.7733,-0.3609,9.6474,28.439,34.4,1
13305928,-0.427,-0.732,0.244,-0.7602,-0.3687,9.6618,28.457,34.4,1
13315932,-0.366,-0.793,0.183,-0.7506,-0.3525,9.6582,28.451,34.4,1
13325932,-0.305,-0.610,0.244,-0.7596,-0.3537,9.6540,28.441,34.4,1
13335932,-0.366,-0.671,0.244,-0.7685,-0.3567,9.6833,28.504,34.4,1
13345946,-0.427,-0.732,0.122,-0.7434,-0.3519,9.6684,28.504,34.4,1
13355947,-0.427,-0.671,0.183,-0.7374,-0.3603,9.6600,28.439,34.4,1
13365947,-0.366,-0.610,0.122,-0.7643,-0.3711,9.6911,28.508,34.4,1
13375962,-0.305,-0.793,0.122,-0.7763,-0.3819,9.6792,28.453,34.4,1
13385962,-0.244,-0.793,0.183,-0.7661,-0.3639,9.6810,28.463,34.4,1
13395962,-0.305,-0.610,0.183,-0.7560,-0.3513,9.6774,28.482,34.4,1
13405963,-0.366,-0.610,0.244,-0.7751,-0.3579,9.6899,28.488,34.4,1
13415963,-0.244,-0.671,0.183,-0.7440,-0.3615,9.6708,28.486,34.4,1
13425963,-0.305,-0.732,0.183,-0.7542,-0.3621,9.6732,28.459,34.4,1
13435963,-0.427,-0.671,0.183,-0.7560,-0.3543,9.6714,28.473,34.4,1
13445978,-0.366,-0.671,0.183,-0.7655,-0.3621,9.6696,28.473,34.4,1
13455978,-0.244,-0.671,0.183,-0.7368,-0.3639,9.6552,28.455,34.4,1
13465982,-0.244,-0.793,0.122,-0.7596,-0.3442,9.6606,28.451,34.4,1
13475993,-0.427,-0.671,0.183,-0.7500,-0.3603,9.6450,28.469,34.4,1
13485994,-0.427,-0.610,0.183,-0.7655,-0.3783,9.6564,28.469,34.4,1
13496008,-0.366,-0.671,0.122,-0.7572,-0.3460,9.6714,28.484,34.4,1
13506021,-0.427,-0.732,0.183,-0.7638,-0.3376,9.6606,28.479,34.4,1
13516023,-0.427,-0.671,0.183,-0.7596,-0.3573,9.6630,28.492,34.4,1
13526027,-0.427,-0.610,0.183,-0.7398,-0.3765,9.6660,28.455,34.4,1
13536039,-0.366,-0.732,0.244,-0.7632,-0.3627,9.6720,28.463,34.4,1
13546039,-0.427,-0.671,0.183,-0.7697,-0.3639,9.6744,28.449,34.4,1
13556039,-0.366,-0.671,0.122,-0.7470,-0.3508,9.6666,28.494,34.4,1
13566039,-0.427,-0.732,0.183,-0.7626,-0.3513,9.6624,28.469,34.4,1
13576039,-0.366,-0.732,0.122,-0.7410,-0.3478,9.6750,28.467,34.4,1
13586039,-0.244,-0.671,0.122,-0.7470,-0.3573,9.6780,28.430,34.4,1
13596039,-0.366,-0.671,0.183,-0.7494,-0.3609,9.6612,28.455,34.4,1
13606039,-0.305,-0.671,0.244,-0.7500,-0.3502,9.6702,28.486,34.4,1
13616039,-0.305,-0.671,0.244,-0.7380,-0.3400,9.6462,28.494,34.4,1
13626039,-0.427,-0.793,0.183,-0.7398,-0.3627,9.6672,28.494,34.4,1
13636039,-0.427,-0.671,0.122,-0.7655,-0.3549,9.6744,28.441,34.4,1
13646039,-0.305,-0.671,0.183,-0.7667,-0.3567,9.6666,28.463,34.4,1
13656039,-0.366,-0.671,0.183,-0.7817,-0.3525,9.6504,28.467,34.4,1
13666051,-0.427,-0.732,0.244,-0.7685,-0.3579,9.6732,28.449,34.4,1
13676064,-0.427,-0.732,0.183,-0.7374,-0.3759,9.6618,28.457,34.4,1
13686078,-0.427,-0.671,0.183,-0.7284,-0.3573,9.6744,28.473,34.4,1
13696083,-0.366,-0.732,0.122,-0.7135,-0.3490,9.6684,28.471,34.4,1
13706085,-0.427,-0.671,0.183,-0.7614,-0.3412,9.6827,28.451,34.4,1
13716085,-0.366,-0.610,0.183,-0.7608,-0.3412,9.6648,28.475,34.4,1
13726099,-0.305,-0.671,0.183,-0.7374,-0.3382,9.6666,28.494,34.4,1
13736100,-0.305,-0.671,0.183,-0.7374,-0.3382,9.6666,28.477,34.4,1
13746110,-0.305,-0.732,0.122,-0.7470,-0.3627,9.6660,28.473,34.4,1
13756116,-0.305,-0.732,0.122,-0.7548,-0.3519,9.6780,28.473,34.4,1
13766130,-0.366,-0.671,0.183,-0.7554,-0.3436,9.6726,28.475,34.4,1
13776130,-0.366,-0.732,0.183,-0.7608,-0.3585,9.6492,28.473,34.4,1
13786138,-0.427,-0.671,0.183,-0.7709,-0.3502,9.6522,28.482,34.4,1
13796146,-0.427,-0.610,0.122,-0.7266,-0.3424,9.6929,28.506,34.4,1
13806161,-0.366,-0.671,0.183,-0.7392,-0.3561,9.6881,28.525,34.4,1
13816161,-0.305,-0.732,0.244,-0.7488,-0.3615,9.6768,28.484,34.4,1
13826176,-0.305,-0.732,0.122,-0.7584,-0.3591,9.6911,28.463,34.4,1
13836176,-0.427,-0.671,0.183,-0.7530,-0.3490,9.6618,28.455,34.4,1
13846176,-0.305,-0.732,0.183,-0.7554,-0.3633,9.6648,28.461,34.4,1
13856176,-0.305,-0.732,0.122,-0.7482,-0.3424,9.6660,28.508,34.4,1
13866176,-0.366,-0.671,0.122,-0.7494,-0.3358,9.6576,28.482,34.4,1
13876176,-0.366,-0.732,0.183,-0.7596,-0.3388,9.6612,28.492,34.4,1
13886188,-0.366,-0.732,0.244,-0.7745,-0.3460,9.6672,28.514,34.4,1
13896191,-0.244,-0.732,0.244,-0.7763,-0.3603,9.6804,28.514,34.4,1
13906191,-0.305,-0.671,0.122,-0.7476,-0.3735,9.6869,28.479,34.4,1
13916191,-0.305,-0.610,0.061,-0.7392,-0.3669,9.6684,28.475,34.4,1
13926205,-0.366,-0.732,0.183,-0.7602,-0.3579,9.6516,28.449,34.4,1
13936206,-0.488,-0.732,0.305,-0.7404,-0.3783,9.6504,28.479,34.4,1
13946206,-0.366,-0.671,0.122,-0.7410,-0.3609,9.6756,28.455,34.4,1
13956217,-0.366,-0.671,0.183,-0.7566,-0.3579,9.6792,28.475,34.4,1
13966222,-0.427,-0.793,0.183,-0.7649,-0.3508,9.6708,28.477,34.4,1
13976237,-0.366,-0.732,0.183,-0.7494,-0.3699,9.6570,28.426,34.4,1
13986237,-0.427,-0.610,0.183,-0.7500,-0.3508,9.6768,28.439,34.4,1
13996237,-0.366,-0.671,0.183,-0.7721,-0.3591,9.6714,28.449,34.4,1
14006247,-0.366,-0.671,0.183,-0.7578,-0.3573,9.6660,28.480,34.4,1
14016252,-0.244,-0.610,0.122,-0.7530,-0.3693,9.6474,28.482,34.4,1
14026267,-0.366,-0.610,0.122,-0.7374,-0.3633,9.6636,28.447,34.4,1
14036267,-0.366,-0.671,0.122,-0.7428,-0.3496,9.6516,28.447,34.4,1
14046267,-0.366,-0.732,0.061,-0.7548,-0.3585,9.6714,28.439,34.4,1
14056267,-0.366,-0.732,0.183,-0.7667,-0.3597,9.6726,28.465,34.4,1
14066268,-0.427,-0.732,0.183,-0.7649,-0.3478,9.6714,28.479,34.4,1
14076288,-0.427,-0.671,0.122,-0.7530,-0.3705,9.6744,28.449,34.4,1
14086288,-0.488,-0.671,0.183,-0.7320,-0.3621,9.6666,28.459,34.4,1
14096288,-0.366,-0.671,0.183,-0.7524,-0.3651,9.6564,28.463,34.4,1
14106298,-0.427,-0.610,0.183,-0.7781,-0.3513,9.6564,28.479,34.4,1
14116300,-0.427,-0.732,0.183,-0.7584,-0.3388,9.6594,28.461,34.4,1
14126313,-0.305,-0.732,0.122,-0.7602,-0.3591,9.6863,28.506,34.4,1
14136319,-0.305,-0.732,0.183,-0.7446,-0.3693,9.6941,28.473,34.4,1
14146319,-0.366,-0.671,0.183,-0.7368,-0.3645,9.6959,28.484,34.4,1
14156333,-0.488,-0.610,0.183,-0.7584,-0.3639,9.6792,28.473,34.4,1
14166334,-0.366,-0.671,0.183,-0.7715,-0.3382,9.6600,28.484,34.4,1
14176334,-0.366,-0.732,0.122,-0.7530,-0.3442,9.6690,28.484,34.4,1
14186334,-0.427,-0.732,0.244,-0.7470,-0.3579,9.6570,28.447,34.4,1
14196348,-0.488,-0.732,0.244,-0.7560,-0.3693,9.6624,28.479,34.4,1
14206348,-0.366,-0.732,0.122,-0.7398,-0.3693,9.7091,28.439,34.4,1
14216349,-0.366,-0.671,0.122,-0.7578,-0.3573,9.6971,28.473,34.4,1
14226349,-0.366,-0.793,0.183,-0.7602,-0.3460,9.6510,28.445,34.4,1
14236349,-0.305,-0.732,0.122,-0.7488,-0.3418,9.6516,28.443,34.4,1
14246361,-0.366,-0.671,0.122,-0.7374,-0.3573,9.6720,28.471,34.4,1
14256364,-0.366,-0.610,0.183,-0.7685,-0.3436,9.6792,28.463,34.4,1
14266374,-0.366,-0.671,0.183,-0.7560,-0.3382,9.6474,28.486,34.4,1
14276379,-0.366,-0.610,0.122,-0.7667,-0.3573,9.6732,28.486,34.4,1
14286379,-0.427,-0.732,0.122,-0.7667,-0.3609,9.6666,28.436,34.4,1
14296379,-0.366,-0.732,0.183,-0.7709,-0.3651,9.6780,28.418,34.4,1
14306380,-0.305,-0.671,0.122,-0.7530,-0.3621,9.6756,28.471,34.4,1
14316394,-0.366,-0.732,0.122,-0.7386,-0.3681,9.6875,28.471,34.4,1
14326395,-0.366,-0.732,0.183,-0.7649,-0.3645,9.6798,28.473,34.4,1
14336410,-0.427,-0.671,0.183,-0.7590,-0.3513,9.6558,28.447,34.4,1
14346410,-0.305,-0.793,0.183,-0.7500,-0.3478,9.6714,28.520,34.4,1
14356422,-0.244,-0.732,0.122,-0.7626,-0.3513,9.6816,28.455,34.4,1
14366425,-0.427,-0.732,0.122,-0.7596,-0.3508,9.6786,28.447,34.4,1
14376425,-0.366,-0.732,0.183,-0.7715,-0.3687,9.6887,28.439,34.4,1
14386425,-0.366,-0.671,0.183,-0.7554,-0.3508,9.6851,28.516,34.4,1
14396425,-0.366,-0.610,0.183,-0.7566,-0.3567,9.6576,28.469,34.4,1
14406425,-0.305,-0.732,0.183,-0.7362,-0.3765,9.6540,28.459,34.4,1
14416425,-0.366,-0.732,0.122,-0.7548,-0.3519,9.6648,28.438,34.4,1
14426425,-0.366,-0.671,0.122,-0.7733,-0.3448,9.6528,28.445,34.4,1
14436425,-0.305,-0.671,0.244,-0.7602,-0.3490,9.6756,28.439,34.4,1
14446425,-0.427,-0.732,0.244,-0.7524,-0.3675,9.6875,28.439,34.4,1
14456435,-0.366,-0.671,0.183,-0.7410,-0.3651,9.6792,28.527,34.4,1
14466440,-0.366,-0.610,0.183,-0.7440,-0.3681,9.6546,28.477,34.4,1
14476441,-0.366,-0.610,0.122,-0.7679,-0.3537,9.6720,28.475,34.4,1
14486455,-0.366,-0.671,0.183,-0.7602,-0.3723,9.6744,28.482,34.4,1
14496464,-0.305,-0.732,0.244,-0.7506,-0.3699,9.6672,28.512,34.4,1
14506471,-0.305,-0.671,0.183,-0.7721,-0.3525,9.6672,28.506,34.4,1
14516485,-0.366,-0.732,0.244,-0.7476,-0.3615,9.6672,28.457,34.4,1
14526486,-0.427,-0.671,0.244,-0.7470,-0.3759,9.6953,28.506,34.4,1
14536486,-0.427,-0.549,0.122,-0.7530,-0.3340,9.6732,28.467,34.4,1
14546486,-0.366,-0.671,0.122,-0.7608,-0.3621,9.6887,28.488,34.4,1
14556486,-0.366,-0.610,0.183,-0.7638,-0.3663,9.6660,28.490,34.4,1
14566486,-0.427,-0.671,0.183,-0.7781,-0.3436,9.6642,28.477,34.4,1
14576500,-0.366,-0.732,0.183,-0.7500,-0.3478,9.6762,28.512,34.4,1
14586501,-0.366,-0.732,0.183,-0.7482,-0.3645,9.6588,28.512,34.4,1
14596501,-0.244,-0.732,0.122,-0.7524,-0.3454,9.6678,28.482,34.4,1
14606502,-0.305,-0.732,0.183,-0.7643,-0.3436,9.6672,28.482,34.4,1
14616516,-0.366,-0.732,0.183,-0.7584,-0.3603,9.6582,28.424,34.4,1
14626517,-0.366,-0.732,0.122,-0.7470,-0.3436,9.6432,28.494,34.4,1
14636517,-0.427,-0.671,0.244,-0.7512,-0.3430,9.6684,28.531,34.4,1
14646531,-0.427,-0.671,0.183,-0.7392,-0.3669,9.6839,28.490,34.4,1
14656532,-0.427,-0.732,0.061,-0.7302,-0.3657,9.6738,28.473,34.4,1
14666532,-0.366,-0.671,0.122,-0.7536,-0.3615,9.6624,28.471,34.4,1
14676546,-0.244,-0.671,0.183,-0.7811,-0.3525,9.6510,28.502,34.4,1
14686547,-0.244,-0.671,0.183,-0.7811,-0.3525,9.6510,28.492,34.4,1
14696547,-0.366,-0.671,0.183,-0.7661,-0.3573,9.6827,28.482,34.4,1
14706557,-0.366,-0.793,0.183,-0.7368,-0.3478,9.6756,28.453,34.4,1
14716562,-0.305,-0.732,0.122,-0.7506,-0.3663,9.6564,28.482,34.4,1
14726562,-0.305,-0.610,0.122,-0.7458,-0.3753,9.6822,28.482,34.4,1
14736562,-0.366,-0.671,0.183,-0.7488,-0.3639,9.6798,28.438,34.4,1
14746562,-0.305,-0.671,0.183,-0.7596,-0.3484,9.6827,28.457,34.4,1
14756562,-0.366,-0.732,0.183,-0.7721,-0.3537,9.6792,28.502,34.4,1
14766562,-0.366,-0.732,0.183,-0.7440,-0.3621,9.6504,28.449,34.4,1
14776576,-0.305,-0.793,0.183,-0.7488,-0.3466,9.6893,28.486,34.4,1
14786577,-0.366,-0.732,0.244,-0.7296,-0.3567,9.7025,28.469,34.4,1
14796577,-0.427,-0.671,0.061,-0.7464,-0.3711,9.6750,28.486,34.4,1
14806577,-0.366,-0.671,0.122,-0.7614,-0.3753,9.6696,28.434,34.4,1
14816578,-0.305,-0.732,0.183,-0.7482,-0.3508,9.6690,28.477,34.4,1
14826593,-0.427,-0.671,0.122,-0.7434,-0.3508,9.6714,28.521,34.4,1
14836593,-0.366,-0.732,0.183,-0.7620,-0.3513,9.6552,28.539,34.4,1
14846593,-0.305,-0.732,0.183,-0.7518,-0.3478,9.6432,28.441,34.4,1
14856608,-0.427,-0.732,0.183,-0.7596,-0.3645,9.6618,28.463,34.4,1
14866609,-0.366,-0.671,0.183,-0.7530,-0.3597,9.6893,28.463,34.4,1
14876623,-0.305,-0.732,0.122,-0.7560,-0.3573,9.6827,28.518,34.4,1
14886633,-0.366,-0.732,0.183,-0.7524,-0.3627,9.6684,28.475,34.4,1
14896639,-0.427,-0.671,0.183,-0.7542,-0.3519,9.6612,28.498,34.4,1
14906639,-0.549,-0.671,0.183,-0.7560,-0.3627,9.6708,28.500,34.4,1
14916653,-0.366,-0.671,0.183,-0.7536,-0.3490,9.6564,28.484,34.4,1
14926654,-0.366,-0.671,0.183,-0.7667,-0.3519,9.6678,28.498,34.4,1
14936655,-0.305,-0.671,0.183,-0.7614,-0.3537,9.6696,28.457,34.4,1
14946669,-0.488,-0.671,0.183,-0.7626,-0.3537,9.6636,28.471,34.4,1
14956681,-0.488,-0.671,0.305,-0.7655,-0.3502,9.6732,28.498,34.4,1
14966684,-0.366,-0.732,0.244,-0.7566,-0.3400,9.6606,28.492,34.4,1
14976684,-0.305,-0.793,0.183,-0.7608,-0.3561,9.6816,28.459,34.4,1
14986684,-0.244,-0.549,0.183,-0.7590,-0.3573,9.6816,28.479,34.4,1
14996694,-0.366,-0.610,0.122,-0.7667,-0.3472,9.6881,28.496,34.4,1
15006699,-0.366,-0.732,0.122,-0.7536,-0.3585,9.6690,28.496,34.4,1
15016699,-0.427,-0.610,0.183,-0.7524,-0.3693,9.6845,28.479,34.4,1
15026699,-0.366,-0.671,0.122,-0.7344,-0.3765,9.6744,28.506,34.4,1
15036700,-0.427,-0.671,0.061,-0.7590,-0.3789,9.6804,28.471,34.4,1
15046714,-0.366,-0.671,0.183,-0.7494,-0.3885,9.6564,28.500,34.4,1
15056715,-0.366,-0.732,0.122,-0.7572,-0.3771,9.6672,28.449,34.4,1
15066715,-0.305,-0.671,0.183,-0.7751,-0.3921,9.6869,28.488,34.4,1
15076729,-0.305,-0.671,0.122,-0.7518,-0.3885,9.6833,28.461,34.4,1
15086731,-0.366,-0.671,0.122,-0.7476,-0.3705,9.6624,28.504,34.4,1
15096745,-0.366,-0.732,0.244,-0.7715,-0.3807,9.6552,28.488,34.4,1
15106745,-0.366,-0.732,0.244,-0.7476,-0.3567,9.6750,28.508,34.4,1
15116745,-0.366,-0.671,0.183,-0.7446,-0.3735,9.6480,28.490,34.4,1
15126745,-0.427,-0.671,0.122,-0.7590,-0.3795,9.6881,28.475,34.4,1
15136745,-0.427,-0.610,0.122,-0.7536,-0.3849,9.6881,28.475,34.4,1
15146753,-0.366,-0.671,0.183,-0.7608,-0.3831,9.6582,28.447,34.4,1
15156760,-0.427,-0.671,0.183,-0.7590,-0.3591,9.6462,28.463,34.4,1
15166760,-0.427,-0.671,0.122,-0.7470,-0.3765,9.6528,28.496,34.4,1
15176761,-0.427,-0.671,0.122,-0.7500,-0.3735,9.6498,28.473,34.4,1
15186773,-0.366,-0.793,0.183,-0.7620,-0.3753,9.6648,28.475,34.4,1
15196777,-0.305,-0.732,0.183,-0.7488,-0.3813,9.6744,28.473,34.4,1
15206794,-0.427,-0.732,0.122,-0.7398,-0.3873,9.6750,28.486,34.4,1
15216795,-0.366,-0.671,0.244,-0.7362,-0.3705,9.6714,28.453,34.4,1
15226810,-0.305,-0.732,0.183,-0.7661,-0.3543,9.6558,28.463,34.4,1
15236810,-0.366,-0.732,0.183,-0.7602,-0.3741,9.6660,28.430,34.4,1
15246822,-0.244,-0.671,0.183,-0.7608,-0.3717,9.6732,28.490,34.4,1
15256825,-0.244,-0.732,0.183,-0.7655,-0.3663,9.6774,28.521,34.4,1
15266825,-0.305,-0.732,0.183,-0.7560,-0.3819,9.6528,28.459,34.4,1
15276825,-0.366,-0.793,0.183,-0.7673,-0.3783,9.6696,28.459,34.4,1
15286825,-0.305,-0.732,0.183,-0.7548,-0.3789,9.6540,28.457,34.4,1
15296825,-0.244,-0.732,0.244,-0.7494,-0.3795,9.6516,28.482,34.4,1
15306827,-0.366,-0.732,0.244,-0.7685,-0.3974,9.6498,28.459,34.4,1
15316840,-0.305,-0.671,0.122,-0.7626,-0.3657,9.6558,28.469,34.4,1
15326840,-0.305,-0.671,0.244,-0.7685,-0.3747,9.6618,28.492,34.4,1
15336840,-0.366,-0.610,0.183,-0.7470,-0.3765,9.6887,28.447,34.4,1
15346841,-0.305,-0.549,0.244,-0.7302,-0.3819,9.6720,28.482,34.4,1
15356841,-0.427,-0.671,0.183,-0.7446,-0.3723,9.6564,28.479,34.4,1
15366841,-0.305,-0.793,0.122,-0.7703,-0.3777,9.6804,28.500,34.4,1
15376853,-0.305,-0.732,0.183,-0.7632,-0.3837,9.6624,28.543,34.4,1
15386856,-0.366,-0.671,0.183,-0.7518,-0.3915,9.6726,28.500,34.4,1
15396871,-0.427,-0.732,0.122,-0.7464,-0.3753,9.6672,28.516,34.4,1
15406871,-0.366,-0.671,0.244,-0.7344,-0.3867,9.6816,28.500,34.4,1
15416871,-0.305,-0.671,0.183,-0.7446,-0.3813,9.6798,28.500,34.4,1
15426871,-0.305,-0.793,0.122,-0.7566,-0.3747,9.6780,28.457,34.4,1
15436879,-0.305,-0.671,0.122,-0.7584,-0.3729,9.6612,28.457,34.4,1
15446883,-0.305,-0.671,0.244,-0.7584,-0.3831,9.6893,28.473,34.4,1
15456886,-0.427,-0.671,0.183,-0.7536,-0.3717,9.6762,28.451,34.4,1
15466886,-0.427,-0.732,0.183,-0.7667,-0.3747,9.6696,28.461,34.4,1
15476886,-0.427,-0.732,0.244,-0.7494,-0.3783,9.6827,28.482,34.4,1
15486886,-0.366,-0.671,0.183,-0.7434,-0.3699,9.6666,28.498,34.4,1
15496886,-0.366,-0.610,0.183,-0.7578,-0.3807,9.6696,28.523,34.4,1
15506886,-0.427,-0.732,0.122,-0.7548,-0.3513,9.6594,28.506,34.4,1
15516901,-0.488,-0.671,0.244,-0.7422,-0.3693,9.6618,28.488,34.4,1
15526910,-0.366,-0.610,0.183,-0.7440,-0.4076,9.6660,28.469,34.4,1
15536917,-0.366,-0.671,0.122,-0.7356,-0.3777,9.6845,28.473,34.4,1
15546917,-0.305,-0.671,0.122,-0.7542,-0.3633,9.6732,28.484,34.4,1
15556932,-0.305,-0.671,0.122,-0.7524,-0.3771,9.6774,28.484,34.4,1
15566933,-0.366,-0.610,0.122,-0.7398,-0.3950,9.6750,28.469,34.4,1
15576947,-0.305,-0.549,0.244,-0.7638,-0.3711,9.6624,28.494,34.4,1
15586947,-0.305,-0.610,0.305,-0.7416,-0.3950,9.6450,28.520,34.4,1
15596947,-0.305,-0.610,0.244,-0.7488,-0.3807,9.6648,28.443,34.4,1
15606948,-0.366,-0.732,0.244,-0.7374,-0.3729,9.6911,28.488,34.4,1
15616962,-0.366,-0.671,0.183,-0.7566,-0.3819,9.6690,28.426,34.4,1
15626963,-0.366,-0.671,0.183,-0.7566,-0.3819,9.6690,28.486,34.4,1
15636963,-0.305,-0.671,0.183,-0.7572,-0.3921,9.6474,28.498,34.4,1
15646977,-0.305,-0.671,0.122,-0.7392,-0.3759,9.6492,28.482,34.4,1
15656977,-0.305,-0.732,0.183,-0.7380,-0.3699,9.6666,28.498,34.4,1
15666978,-0.366,-0.732,0.183,-0.7578,-0.3687,9.6654,28.473,34.4,1
15676978,-0.366,-0.671,0.183,-0.7344,-0.3603,9.6845,28.455,34.4,1
15686978,-0.427,-0.671,0.183,-0.7446,-0.3621,9.6684,28.504,34.4,1
15696978,-0.427,-0.732,0.122,-0.7458,-0.3699,9.6672,28.504,34.4,1
15706978,-0.427,-0.732,0.122,-0.7428,-0.3615,9.6726,28.445,34.4,1
15716992,-0.427,-0.610,0.122,-0.7344,-0.3651,9.6899,28.473,34.4,1
15726992,-0.366,-0.671,0.061,-0.7554,-0.3585,9.6588,28.477,34.4,1
15736993,-0.427,-0.671,0.122,-0.7500,-0.3879,9.6498,28.449,34.4,1
15746993,-0.427,-0.732,0.244,-0.7494,-0.3741,9.6714,28.500,34.4,1
15756993,-0.427,-0.732,0.183,-0.7506,-0.3681,9.6720,28.484,34.4,1
15766993,-0.366,-0.732,0.122,-0.7590,-0.3657,9.6618,28.457,34.4,1
15776997,-0.305,-0.732,0.183,-0.7446,-0.3699,9.6534,28.502,34.4,1
15787008,-0.305,-0.671,0.122,-0.7458,-0.3567,9.6810,28.523,34.4,1
15797008,-0.366,-0.610,0.183,-0.7530,-0.3741,9.6768,28.461,34.4,1
15807008,-0.305,-0.610,0.183,-0.7470,-0.3765,9.6660,28.541,34.4,1
15817008,-0.305,-0.732,0.122,-0.7356,-0.3549,9.6576,28.512,34.4,1
15827020,-0.244,-0.793,0.244,-0.7356,-0.3693,9.6552,28.512,34.4,1
15837023,-0.366,-0.732,0.244,-0.7129,-0.3777,9.6774,28.475,34.4,1
15847023,-0.366,-0.854,0.183,-0.7661,-0.3651,9.6911,28.445,34.4,1
15857023,-0.366,-0.732,0.183,-0.7512,-0.3765,9.6588,28.471,34.4,1
15867024,-0.427,-0.671,0.183,-0.7685,-0.3855,9.6732,28.434,34.4,1
15877038,-0.427,-0.732,0.183,-0.7530,-0.3956,9.6774,28.465,34.4,1
15887051,-0.366,-0.671,0.183,-0.7470,-0.3795,9.6780,28.506,34.4,1
15897064,-0.366,-0.671,0.122,-0.7584,-0.3813,9.6600,28.488,34.4,1
15907069,-0.366,-0.671,0.183,-0.7578,-0.3962,9.6594,28.477,34.4,1
15917069,-0.427,-0.671,0.183,-0.7584,-0.3591,9.6851,28.451,34.4,1
15927084,-0.366,-0.793,0.122,-0.7566,-0.3633,9.6498,28.488,34.4,1
15937085,-0.427,-0.732,0.183,-0.7248,-0.3735,9.6672,28.506,34.4,1
15947100,-0.366,-0.610,0.183,-0.7284,-0.3789,9.6762,28.500,34.4,1
15957100,-0.305,-0.732,0.122,-0.7446,-0.3687,9.6923,28.467,34.4,1
15967115,-0.366,-0.732,0.183,-0.7386,-0.3819,9.6857,28.467,34.4,1
15977115,-0.366,-0.671,0.183,-0.7661,-0.3837,9.6672,28.473,34.4,1
15987127,-0.305,-0.549,0.183,-0.7715,-0.3633,9.6833,28.475,34.4,1
15997130,-0.305,-0.610,0.183,-0.7416,-0.3705,9.6774,28.490,34.4,1
16007130,-0.427,-0.732,0.061,-0.7440,-0.3777,9.6678,28.506,34.4,1
16017130,-0.366,-0.671,0.122,-0.7661,-0.3861,9.6558,28.475,34.4,1
16027130,-0.366,-0.671,0.183,-0.7608,-0.3615,9.6762,28.469,34.4,1
16037130,-0.427,-0.671,0.244,-0.7721,-0.3843,9.6804,28.461,34.4,1
16047131,-0.488,-0.732,0.183,-0.7398,-0.3729,9.6726,28.492,34.4,1
16057145,-0.366,-0.732,0.183,-0.7362,-0.3825,9.6744,28.445,34.4,1
16067145,-0.427,-0.732,0.122,-0.7446,-0.3885,9.6827,28.477,34.4,1
16077158,-0.366,-0.671,0.061,-0.7596,-0.3783,9.6720,28.467,34.4,1
16087158,-0.366,-0.671,0.244,-0.7494,-0.3537,9.6863,28.486,34.4,1
16097160,-0.366,-0.671,0.244,-0.7494,-0.3711,9.6738,28.455,34.4,1
16107171,-0.488,-0.671,0.183,-0.7560,-0.3831,9.6594,28.455,34.4,1
16117176,-0.366,-0.732,0.183,-0.7338,-0.3783,9.6762,28.510,34.4,1
16127176,-0.305,-0.732,0.122,-0.7548,-0.3711,9.6923,28.467,34.4,1
16137186,-0.366,-0.732,0.183,-0.7572,-0.3681,9.6786,28.473,34.4,1
16147191,-0.427,-0.732,0.183,-0.7566,-0.3579,9.6534,28.475,34.4,1
16157191,-0.427,-0.732,0.183,-0.7344,-0.3591,9.6738,28.492,34.4,1
16167191,-0.366,-0.732,0.122,-0.7518,-0.3496,9.6887,28.432,34.4,1
16177204,-0.427,-0.732,0.183,-0.7590,-0.3513,9.6732,28.479,34.4,1
16187206,-0.366,-0.671,0.122,-0.7560,-0.3699,9.6564,28.463,34.4,1
16197206,-0.366,-0.671,0.183,-0.7608,-0.3585,9.6696,28.473,34.4,1
16207219,-0.366,-0.610,0.183,-0.7488,-0.3466,9.6666,28.494,34.4,1
16217232,-0.366,-0.732,0.183,-0.7614,-0.3442,9.6762,28.490,34.4,1
16227237,-0.366,-0.732,0.183,-0.7775,-0.3603,9.6690,28.498,34.4,1
16237238,-0.366,-0.732,0.244,-0.7602,-0.3555,9.6624,28.459,34.4,1
16247252,-0.427,-0.671,0.183,-0.7751,-0.3537,9.6732,28.459,34.4,1
16257252,-0.366,-0.732,0.122,-0.7446,-0.3478,9.6762,28.480,34.4,1
16267262,-0.305,-0.732,0.122,-0.7488,-0.3591,9.6648,28.475,34.4,1
16277267,-0.305,-0.610,0.183,-0.7614,-0.3388,9.6750,28.453,34.4,1
16287268,-0.366,-0.610,0.183,-0.7422,-0.3316,9.6762,28.480,34.4,1
16297288,-0.488,-0.671,0.122,-0.7398,-0.3651,9.6738,28.461,34.4,1
16307291,-0.305,-0.732,0.183,-0.7679,-0.3591,9.6726,28.508,34.4,1
16317300,-0.305,-0.732,0.183,-0.7697,-0.3496,9.6744,28.541,34.4,1
16327300,-0.305,-0.671,0.122,-0.7614,-0.3418,9.6570,28.441,34.4,1
16337300,-0.305,-0.610,0.183,-0.7500,-0.3657,9.6654,28.475,34.4,1
16347303,-0.427,-0.671,0.183,-0.7482,-0.3579,9.6516,28.467,34.4,1
16357303,-0.427,-0.732,0.183,-0.7356,-0.3436,9.6678,28.449,34.4,1
16367315,-0.366,-0.732,0.183,-0.7326,-0.3573,9.6516,28.475,34.4,1
16377318,-0.305,-0.671,0.122,-0.7344,-0.3609,9.6732,28.486,34.4,1
16387318,-0.366,-0.732,0.122,-0.7494,-0.3519,9.6516,28.486,34.4,1
16397328,-0.366,-0.732,0.183,-0.7614,-0.3537,9.7031,28.471,34.4,1
16407333,-0.366,-0.671,0.183,-0.7440,-0.3555,9.6504,28.475,34.4,1
16417346,-0.366,-0.671,0.183,-0.7213,-0.3603,9.6391,28.473,34.4,1
16427349,-0.427,-0.671,0.183,-0.7428,-0.3669,9.6516,28.471,34.4,1
16437350,-0.488,-0.610,0.183,-0.7643,-0.3771,9.6690,28.479,34.4,1
16447350,-0.427,-0.793,0.122,-0.7835,-0.3675,9.6750,28.441,34.4,1
16457361,-0.366,-0.671,0.122,-0.7649,-0.3729,9.6648,28.492,34.4,1
16467364,-0.427,-0.610,0.244,-0.7494,-0.3795,9.6642,28.475,34.4,1
16477364,-0.488,-0.549,0.183,-0.7560,-0.3741,9.6714,28.525,34.4,1
16487364,-0.427,-0.610,0.244,-0.7643,-0.3585,9.6558,28.520,34.4,1
16497378,-0.244,-0.671,0.244,-0.7410,-0.3819,9.6702,28.471,34.4,1
16507379,-0.305,-0.732,0.183,-0.7643,-0.3783,9.6744,28.508,34.4,1
16517380,-0.305,-0.732,0.183,-0.7596,-0.3609,9.6804,28.508,34.4,1
16527395,-0.305,-0.793,0.122,-0.7560,-0.3669,9.6798,28.482,34.4,1
16537410,-0.366,-0.793,0.183,-0.7548,-0.3962,9.6714,28.438,34.4,1
16547417,-0.427,-0.671,0.183,-0.7332,-0.3795,9.6792,28.465,34.4,1
16557419,-0.305,-0.732,0.183,-0.7602,-0.3717,9.6606,28.486,34.4,1
16567425,-0.305,-0.732,0.183,-0.7602,-0.3717,9.6606,28.447,34.4,1
16577425,-0.305,-0.732,0.183,-0.7434,-0.3747,9.6612,28.469,34.4,1
16587435,-0.305,-0.732,0.183,-0.7470,-0.3819,9.6666,28.521,34.4,1
16597441,-0.427,-0.732,0.183,-0.7578,-0.3783,9.6498,28.479,34.4,1
16607455,-0.427,-0.610,0.183,-0.7380,-0.3663,9.6708,28.488,34.4,1
16617455,-0.366,-0.732,0.122,-0.7632,-0.3807,9.6780,28.480,34.4,1
16627455,-0.366,-0.671,0.183,-0.7350,-0.3705,9.6570,28.492,34.4,1
16637455,-0.427,-0.671,0.183,-0.7554,-0.3783,9.6510,28.504,34.4,1
16647470,-0.366,-0.671,0.183,-0.7572,-0.3735,9.6750,28.465,34.4,1
16657471,-0.305,-0.671,0.122,-0.7548,-0.3837,9.6600,28.465,34.4,1
16667486,-0.305,-0.732,0.183,-0.7374,-0.3771,9.6726,28.516,34.4,1
16677500,-0.305,-0.671,0.183,-0.7362,-0.3699,9.6630,28.502,34.4,1
16687513,-0.305,-0.671,0.122,-0.7368,-0.3603,9.6672,28.498,34.4,1
16697516,-0.305,-0.793,0.244,-0.7817,-0.3831,9.6768,28.459,34.4,1
16707516,-0.244,-0.671,0.244,-0.7512,-0.3723,9.6504,28.484,34.4,1
16717520,-0.305,-0.732,0.244,-0.7374,-0.3741,9.6540,28.518,34.4,1
16727532,-0.366,-0.732,0.122,-0.7781,-0.3849,9.6792,28.518,34.4,1
16737532,-0.366,-0.732,0.183,-0.7643,-0.3801,9.6642,28.508,34.4,1
16747547,-0.366,-0.732,0.183,-0.7530,-0.3651,9.6510,28.504,34.4,1
16757547,-0.366,-0.671,0.183,-0.7524,-0.3795,9.6678,28.502,34.4,1
16767547,-0.305,-0.732,0.061,-0.7530,-0.3795,9.6714,28.412,34.4,1
16777547,-0.366,-0.732,0.183,-0.7410,-0.3801,9.6696,28.430,34.4,1
16787561,-0.366,-0.732,0.183,-0.7446,-0.3807,9.6786,28.477,34.4,1
16797562,-0.427,-0.671,0.244,-0.7398,-0.3759,9.6558,28.477,34.4,1
16807562,-0.427,-0.732,0.183,-0.7512,-0.3753,9.6768,28.504,34.4,1
16817562,-0.366,-0.671,0.244,-0.7512,-0.3711,9.6833,28.477,34.4,1
16827574,-0.305,-0.671,0.244,-0.7248,-0.4010,9.6744,28.449,34.4,1
16837574,-0.366,-0.732,0.183,-0.7362,-0.3879,9.6792,28.473,34.4,1
16847577,-0.366,-0.732,0.244,-0.7632,-0.3897,9.6792,28.506,34.4,1
16857577,-0.427,-0.732,0.122,-0.7524,-0.3789,9.6750,28.459,34.4,1
16867577,-0.427,-0.671,0.183,-0.7500,-0.3777,9.6678,28.473,34.4,1
16877578,-0.305,-0.671,0.244,-0.7464,-0.3585,9.6708,28.469,34.4,1
16887592,-0.244,-0.671,0.183,-0.7290,-0.3615,9.6403,28.494,34.4,1
16897593,-0.305,-0.671,0.183,-0.7428,-0.3747,9.6666,28.496,34.4,1
16907608,-0.305,-0.671,0.183,-0.7410,-0.3819,9.6738,28.482,34.4,1
16917618,-0.305,-0.732,0.122,-0.7512,-0.3699,9.6726,28.469,34.4,1
16927623,-0.305,-0.732,0.183,-0.7512,-0.3831,9.6522,28.488,34.4,1
16937626,-0.427,-0.671,0.122,-0.7416,-0.3891,9.6540,28.488,34.4,1
16947626,-0.427,-0.671,0.122,-0.7608,-0.3825,9.6618,28.488,34.4,1
16957638,-0.427,-0.732,0.122,-0.7590,-0.3867,9.6654,28.496,34.4,1
16967638,-0.305,-0.732,0.183,-0.7380,-0.3585,9.6786,28.463,34.4,1
16977639,-0.427,-0.732,0.122,-0.7578,-0.3621,9.6768,28.484,34.4,1
16987639,-0.427,-0.671,0.183,-0.7518,-0.3765,9.6750,28.469,34.4,1
16997639,-0.305,-0.732,0.183,-0.7422,-0.3753,9.6540,28.486,34.4,1
17007653,-0.366,-0.732,0.183,-0.7500,-0.3675,9.6528,28.496,34.4,1
17017654,-0.305,-0.671,0.183,-0.7488,-0.3795,9.6845,28.447,34.4,1
17027668,-0.305,-0.671,0.183,-0.7518,-0.3807,9.6786,28.479,34.4,1
17037669,-0.366,-0.732,0.244,-0.7536,-0.3699,9.6558,28.484,34.4,1
17047669,-0.366,-0.793,0.305,-0.7548,-0.3753,9.6606,28.484,34.4,1
17057669,-0.427,-0.610,0.183,-0.7715,-0.3663,9.6696,28.475,34.4,1
17067669,-0.427,-0.610,0.183,-0.7602,-0.3813,9.6804,28.451,34.4,1
17077669,-0.366,-0.671,0.183,-0.7584,-0.3915,9.6462,28.451,34.4,1
17087669,-0.305,-0.732,0.061,-0.7542,-0.3729,9.6839,28.465,34.4,1
17097669,-0.305,-0.732,0.122,-0.7488,-0.3789,9.6546,28.453,34.4,1
17107669,-0.427,-0.732,0.305,-0.7554,-0.3735,9.6570,28.449,34.4,1
17117669,-0.305,-0.549,0.183,-0.7739,-0.3783,9.6522,28.506,34.4,1
17127669,-0.305,-0.671,0.122,-0.7566,-0.3693,9.6564,28.473,34.4,1
17137669,-0.305,-0.671,0.183,-0.7554,-0.3777,9.6594,28.547,34.4,1
17147681,-0.366,-0.671,0.183,-0.7763,-0.3783,9.6953,28.447,34.4,1
17157684,-0.366,-0.671,0.183,-0.7602,-0.3645,9.6714,28.494,34.4,1
17167694,-0.366,-0.732,0.122,-0.7536,-0.3621,9.6498,28.475,34.4,1
17177699,-0.427,-0.671,0.183,-0.7296,-0.3777,9.6528,28.488,34.4,1
17187699,-0.366,-0.671,0.183,-0.7386,-0.3621,9.6827,28.490,34.4,1
17197699,-0.427,-0.671,0.244,-0.7721,-0.3711,9.6594,28.484,34.4,1
17207699,-0.427,-0.793,0.183,-0.7733,-0.3783,9.6780,28.484,34.4,1
17217699,-0.427,-0.671,0.183,-0.7649,-0.3819,9.6684,28.479,34.4,1
17227699,-0.366,-0.732,0.183,-0.7446,-0.3813,9.6690,28.492,34.4,1
17237700,-0.305,-0.732,0.305,-0.7416,-0.3627,9.6905,28.500,34.4,1
17247700,-0.366,-0.671,0.183,-0.7596,-0.3687,9.6444,28.502,34.4,1
17257715,-0.305,-0.671,0.183,-0.7721,-0.3675,9.6624,28.469,34.4,1
17267723,-0.366,-0.671,0.183,-0.7350,-0.3645,9.6947,28.475,34.4,1
17277730,-0.366,-0.732,0.183,-0.7518,-0.3813,9.6654,28.490,34.4,1
17287730,-0.305,-0.671,0.183,-0.7536,-0.3759,9.6552,28.443,34.4,1
17297730,-0.427,-0.610,0.122,-0.7404,-0.3837,9.6732,28.494,34.4,1
17307744,-0.427,-0.671,0.183,-0.7524,-0.3735,9.6774,28.486,34.4,1
17317745,-0.366,-0.732,0.183,-0.7560,-0.3669,9.6612,28.479,34.4,1
17327745,-0.366,-0.610,0.183,-0.7446,-0.3813,9.6534,28.488,34.4,1
17337757,-0.366,-0.610,0.183,-0.7446,-0.3837,9.6504,28.473,34.4,1
17347771,-0.305,-0.671,0.244,-0.7661,-0.3651,9.6929,28.473,34.4,1
17357776,-0.244,-0.610,0.183,-0.7548,-0.3615,9.6738,28.504,34.4,1
17367794,-0.305,-0.671,0.183,-0.7506,-0.3603,9.6947,28.453,34.4,1
17377795,-0.305,-0.671,0.244,-0.7524,-0.3885,9.6600,28.498,34.4,1
17387809,-0.366,-0.610,0.183,-0.7548,-0.3747,9.6624,28.484,34.4,1
17397810,-0.427,-0.671,0.122,-0.7608,-0.3783,9.6762,28.467,34.4,1
17407810,-0.366,-0.732,0.122,-0.7548,-0.3807,9.6636,28.477,34.4,1
17417810,-0.244,-0.671,0.183,-0.7823,-0.3831,9.6486,28.451,34.4,1
17427822,-0.305,-0.671,0.244,-0.7512,-0.3849,9.6839,28.461,34.4,1
17437825,-0.366,-0.732,0.122,-0.7476,-0.3699,9.6750,28.516,34.4,1
17447825,-0.305,-0.732,0.244,-0.7494,-0.3789,9.6666,28.461,34.4,1
17457825,-0.183,-0.671,0.244,-0.7602,-0.3843,9.6810,28.510,34.4,1
17467825,-0.366,-0.732,0.122,-0.7548,-0.3645,9.6690,28.510,34.4,1
17477825,-0.366,-0.671,0.122,-0.7458,-0.3831,9.6522,28.471,34.4,1
17487840,-0.305,-0.671,0.183,-0.7578,-0.3891,9.6726,28.471,34.4,1
17497851,-0.427,-0.671,0.122,-0.7446,-0.3855,9.6702,28.484,34.4,1
17507856,-0.427,-0.732,0.122,-0.7488,-0.3693,9.6720,28.465,34.4,1
17517871,-0.427,-0.732,0.122,-0.7488,-0.3693,9.6720,28.504,34.4,1
17527871,-0.366,-0.671,0.183,-0.7296,-0.3639,9.6905,28.473,34.4,1
17537871,-0.244,-0.610,0.122,-0.7667,-0.3567,9.6684,28.473,34.4,1
17547871,-0.366,-0.610,0.183,-0.7691,-0.3675,9.6474,28.473,34.4,1
17557886,-0.366,-0.671,0.122,-0.7536,-0.3801,9.6917,28.473,34.4,1
17567901,-0.305,-0.671,0.183,-0.7685,-0.3657,9.6612,28.475,34.4,1
17577901,-0.305,-0.671,0.183,-0.7452,-0.3693,9.6498,28.471,34.4,1
17587901,-0.244,-0.732,0.183,-0.7440,-0.3909,9.6887,28.482,34.4,1
17597902,-0.305,-0.610,0.183,-0.7536,-0.3915,9.6666,28.461,34.4,1
17607917,-0.427,-0.671,0.183,-0.7572,-0.3837,9.6660,28.498,34.4,1
17617917,-0.305,-0.732,0.183,-0.7620,-0.3801,9.6588,28.457,34.4,1
17627931,-0.305,-0.671,0.244,-0.7548,-0.3926,9.6923,28.457,34.4,1
17637932,-0.366,-0.671,0.183,-0.7506,-0.3783,9.6750,28.461,34.4,1
17647932,-0.366,-0.732,0.183,-0.7584,-0.3639,9.6786,28.498,34.4,1
17657932,-0.305,-0.732,0.183,-0.7643,-0.3795,9.6672,28.496,34.4,1
17667932,-0.305,-0.732,0.183,-0.7560,-0.3807,9.6642,28.465,34.4,1
17677932,-0.305,-0.732,0.122,-0.7524,-0.3735,9.6660,28.512,34.4,1
17687932,-0.244,-0.732,0.244,-0.7374,-0.3759,9.6540,28.504,34.4,1
17697932,-0.366,-0.732,0.183,-0.7434,-0.3729,9.6528,28.477,34.4,1
17707932,-0.427,-0.671,0.183,-0.7464,-0.3753,9.6666,28.473,34.4,1
17717932,-0.366,-0.671,0.122,-0.7524,-0.3807,9.6666,28.473,34.4,1
17727932,-0.305,-0.732,0.122,-0.7649,-0.3711,9.6965,28.496,34.4,1
17737932,-0.366,-0.610,0.183,-0.7308,-0.3825,9.6714,28.498,34.4,1
17747932,-0.366,-0.671,0.244,-0.7482,-0.3693,9.6845,28.482,34.4,1
17757932,-0.305,-0.732,0.183,-0.7464,-0.3490,9.6822,28.484,34.4,1
17767932,-0.305,-0.671,0.183,-0.7482,-0.3543,9.6606,28.484,34.4,1
17777932,-0.305,-0.732,0.244,-0.7584,-0.3573,9.6522,28.504,34.4,1
17787932,-0.366,-0.732,0.183,-0.7458,-0.3807,9.6780,28.459,34.4,1
17797932,-0.366,-0.671,0.183,-0.7512,-0.3759,9.6618,28.512,34.4,1
17807932,-0.366,-0.732,0.183,-0.7584,-0.3843,9.6756,28.502,34.4,1
17817936,-0.366,-0.732,0.122,-0.7584,-0.3753,9.6780,28.473,34.4,1
17827947,-0.305,-0.732,0.183,-0.7608,-0.3651,9.6540,28.496,34.4,1
17837947,-0.244,-0.671,0.183,-0.7584,-0.3615,9.6768,28.486,34.4,1
17847948,-0.183,-0.671,0.244,-0.7691,-0.3711,9.6624,28.482,34.4,1
17857948,-0.305,-0.732,0.244,-0.7620,-0.3801,9.6636,28.457,34.4,1
17867963,-0.305,-0.732,0.122,-0.7320,-0.3926,9.6438,28.420,34.4,1
17877963,-0.366,-0.732,0.122,-0.7476,-0.3627,9.6738,28.447,34.4,1
17887963,-0.427,-0.732,0.183,-0.7362,-0.3831,9.6822,28.471,34.4,1
17897963,-0.366,-0.732,0.244,-0.7446,-0.3705,9.6594,28.471,34.4,1
17907978,-0.488,-0.732,0.183,-0.7685,-0.3825,9.6570,28.482,34.4,1
17917993,-0.488,-0.732,0.183,-0.7709,-0.3771,9.6810,28.441,34.4,1
17927993,-0.244,-0.732,0.183,-0.7560,-0.3585,9.6654,28.492,34.4,1
17937994,-0.244,-0.732,0.183,-0.7715,-0.3759,9.6552,28.480,34.4,1
17948008,-0.305,-0.671,0.061,-0.7470,-0.3903,9.6648,28.463,34.4,1
17958021,-0.366,-0.732,0.122,-0.7368,-0.3843,9.6905,28.453,34.4,1
17968023,-0.366,-0.793,0.183,-0.7398,-0.3843,9.6666,28.516,34.4,1
17978027,-0.366,-0.671,0.122,-0.7566,-0.3729,9.6702,28.473,34.4,1
17988038,-0.305,-0.732,0.122,-0.7578,-0.3980,9.6636,28.514,34.4,1
17998039,-0.366,-0.732,0.183,-0.7524,-0.3747,9.6666,28.521,34.4,1
18008039,-0.427,-0.732,0.244,-0.7566,-0.3795,9.6666,28.447,34.4,1
18018039,-0.366,-0.732,0.122,-0.7374,-0.3831,9.6576,28.490,34.4,1
18028039,-0.366,-0.732,0.183,-0.7242,-0.3771,9.6839,28.504,34.4,1
18038039,-0.305,-0.671,0.183,-0.7572,-0.3855,9.6738,28.504,34.4,1
18048039,-0.366,-0.610,0.061,-0.7386,-0.3753,9.6678,28.482,34.4,1
18058039,-0.366,-0.671,0.122,-0.7458,-0.3741,9.6432,28.453,34.4,1
18068053,-0.427,-0.732,0.183,-0.7494,-0.3885,9.6666,28.484,34.4,1
18078054,-0.305,-0.671,0.244,-0.7272,-0.3825,9.6708,28.486,34.4,1
18088054,-0.244,-0.671,0.183,-0.7452,-0.3747,9.6684,28.520,34.4,1
18098054,-0.305,-0.671,0.183,-0.7476,-0.3687,9.6702,28.494,34.4,1
18108054,-0.305,-0.671,0.122,-0.7566,-0.3903,9.6738,28.525,34.4,1
18118054,-0.427,-0.732,0.000,-0.7506,-0.3915,9.6666,28.504,34.4,1
18128054,-0.366,-0.671,0.183,-0.7602,-0.3861,9.6660,28.510,34.4,1
18138066,-0.244,-0.671,0.183,-0.7524,-0.3789,9.6612,28.500,34.4,1
18148069,-0.305,-0.671,0.183,-0.7626,-0.3723,9.6708,28.492,34.4,1
18158069,-0.427,-0.732,0.183,-0.7596,-0.3861,9.6851,28.465,34.4,1
18168070,-0.366,-0.793,0.183,-0.7667,-0.3609,9.6606,28.482,34.4,1
18178079,-0.427,-0.671,0.244,-0.7494,-0.3543,9.6600,28.482,34.4,1
18188084,-0.305,-0.732,0.244,-0.7524,-0.3753,9.6606,28.510,34.4,1
18198084,-0.305,-0.671,0.183,-0.7530,-0.3903,9.6660,28.527,34.4,1
18208085,-0.305,-0.732,0.183,-0.7703,-0.3759,9.6738,28.488,34.4,1
18218085,-0.366,-0.671,0.122,-0.7242,-0.3603,9.6588,28.434,34.4,1
18228085,-0.366,-0.732,0.122,-0.7434,-0.3789,9.6660,28.455,34.4,1
18238085,-0.366,-0.671,0.183,-0.7602,-0.3855,9.6816,28.477,34.4,1
18248085,-0.427,-0.671,0.122,-0.7476,-0.3861,9.6863,28.500,34.4,1
18258085,-0.366,-0.671,0.061,-0.7392,-0.3771,9.6660,28.504,34.4,1
18268085,-0.427,-0.732,0.122,-0.7554,-0.3741,9.6786,28.492,34.4,1
18278085,-0.366,-0.671,0.183,-0.7781,-0.3777,9.6851,28.480,34.4,1
18288086,-0.427,-0.732,0.183,-0.7584,-0.3687,9.6768,28.496,34.4,1
18298100,-0.427,-0.671,0.122,-0.7464,-0.3831,9.6612,28.463,34.4,1
18308100,-0.366,-0.671,0.122,-0.7506,-0.3897,9.6570,28.502,34.4,1
18318115,-0.427,-0.732,0.244,-0.7518,-0.3825,9.6642,28.502,34.4,1
18328115,-0.488,-0.732,0.183,-0.7500,-0.3663,9.6510,28.471,34.4,1
18338115,-0.366,-0.610,0.183,-0.7667,-0.3819,9.6672,28.467,34.4,1
18348129,-0.366,-0.732,0.305,-0.7458,-0.3861,9.6774,28.529,34.4,1
18358130,-0.366,-0.793,0.183,-0.7518,-0.3591,9.6768,28.500,34.4,1
18368130,-0.305,-0.671,0.183,-0.7446,-0.3657,9.6881,28.518,34.4,1
18378143,-0.305,-0.610,0.244,-0.7715,-0.3921,9.6672,28.457,34.4,1
18388146,-0.488,-0.671,0.122,-0.7452,-0.3825,9.6564,28.504,34.4,1
18398146,-0.427,-0.671,0.183,-0.7362,-0.3723,9.6546,28.494,34.4,1
18408156,-0.366,-0.732,0.183,-0.7530,-0.3944,9.6624,28.508,34.4,1
18418156,-0.427,-0.671,0.183,-0.7332,-0.3795,9.6827,28.453,34.4,1
18428161,-0.366,-0.732,0.183,-0.7464,-0.3603,9.6845,28.484,34.4,1
18438161,-0.305,-0.732,0.183,-0.7638,-0.3789,9.6732,28.488,34.4,1
18448173,-0.305,-0.732,0.183,-0.7638,-0.3789,9.6732,28.471,34.4,1
18458176,-0.427,-0.671,0.244,-0.7620,-0.3771,9.6786,28.471,34.4,1
18468177,-0.488,-0.671,0.122,-0.7602,-0.3747,9.6750,28.492,34.4,1
18478191,-0.427,-0.732,0.061,-0.7536,-0.3789,9.6636,28.488,34.4,1
18488205,-0.366,-0.671,0.122,-0.7410,-0.3591,9.6438,28.502,34.4,1
18498206,-0.305,-0.610,0.061,-0.7530,-0.3813,9.6786,28.467,34.4,1
18508206,-0.427,-0.671,0.061,-0.7470,-0.3932,9.6582,28.463,34.4,1
18518206,-0.305,-0.671,0.183,-0.7506,-0.3777,9.6714,28.506,34.4,1
18528206,-0.366,-0.610,0.244,-0.7404,-0.3657,9.6756,28.490,34.4,1
18538207,-0.366,-0.732,0.183,-0.7673,-0.3819,9.6684,28.473,34.4,1
18548221,-0.305,-0.732,0.122,-0.7554,-0.3903,9.6642,28.467,34.4,1
18558222,-0.427,-0.793,0.244,-0.7560,-0.3765,9.6510,28.508,34.4,1
18568222,-0.427,-0.732,0.183,-0.7578,-0.3909,9.6492,28.520,34.4,1
18578222,-0.305,-0.671,0.183,-0.7566,-0.3795,9.6666,28.457,34.4,1
18588222,-0.366,-0.732,0.183,-0.7446,-0.3741,9.6397,28.457,34.4,1
18598222,-0.305,-0.793,0.122,-0.7404,-0.3693,9.6432,28.508,34.4,1
18608236,-0.244,-0.732,0.122,-0.7416,-0.3651,9.6672,28.477,34.4,1
18618237,-0.305,-0.671,0.183,-0.7404,-0.3699,9.6827,28.518,34.4,1
18628251,-0.366,-0.671,0.122,-0.7326,-0.3747,9.6750,28.465,34.4,1
18638252,-0.366,-0.732,0.183,-0.7536,-0.3741,9.6564,28.473,34.4,1
18648252,-0.366,-0.732,0.183,-0.7620,-0.3855,9.6594,28.492,34.4,1
18658252,-0.427,-0.671,0.183,-0.7560,-0.3867,9.6642,28.496,34.4,1
18668252,-0.366,-0.671,0.183,-0.7494,-0.3903,9.6660,28.445,34.4,1
18678252,-0.366,-0.732,0.183,-0.7386,-0.3717,9.6708,28.453,34.4,1
18688267,-0.366,-0.732,0.183,-0.7673,-0.3717,9.6786,28.477,34.4,1
18698268,-0.427,-0.732,0.183,-0.7482,-0.3717,9.6756,28.512,34.4,1
18708287,-0.427,-0.793,0.244,-0.7272,-0.3789,9.6672,28.477,34.4,1
18718300,-0.366,-0.732,0.183,-0.7542,-0.3765,9.6648,28.471,34.4,1
18728303,-0.305,-0.732,0.122,-0.7560,-0.3711,9.6630,28.471,34.4,1
18738315,-0.366,-0.671,0.183,-0.7452,-0.3765,9.6839,28.467,34.4,1
18748318,-0.427,-0.671,0.122,-0.7446,-0.3825,9.7013,28.500,34.4,1
18758333,-0.366,-0.610,0.122,-0.7560,-0.3669,9.6833,28.500,34.4,1
18768333,-0.305,-0.732,0.183,-0.7614,-0.3771,9.6492,28.504,34.4,1
18778348,-0.305,-0.732,0.183,-0.7524,-0.3801,9.6792,28.473,34.4,1
18788349,-0.366,-0.732,0.183,-0.7542,-0.3430,9.6606,28.439,34.4,1
18798349,-0.366,-0.671,0.122,-0.7272,-0.3663,9.6576,28.490,34.4,1
18808359,-0.366,-0.793,0.122,-0.7548,-0.3909,9.6612,28.475,34.4,1
18818364,-0.305,-0.671,0.122,-0.7440,-0.3795,9.6720,28.508,34.4,1
18828364,-0.366,-0.610,0.183,-0.7524,-0.3585,9.6750,28.504,34.4,1
18838364,-0.366,-0.671,0.244,-0.7602,-0.3747,9.6696,28.514,34.4,1
18848364,-0.305,-0.732,0.183,-0.7584,-0.3765,9.6438,28.455,34.4,1
18858378,-0.366,-0.671,0.244,-0.7404,-0.3735,9.6606,28.502,34.4,1
18868379,-0.427,-0.610,0.305,-0.7536,-0.3711,9.6893,28.502,34.4,1
18878379,-0.305,-0.610,0.122,-0.7691,-0.3699,9.6935,28.473,34.4,1
18888391,-0.366,-0.671,0.244,-0.7464,-0.3693,9.7043,28.486,34.4,1
18898393,-0.488,-0.732,0.183,-0.7308,-0.3687,9.6881,28.484,34.4,1
18908395,-0.427,-0.671,0.183,-0.7638,-0.3825,9.6606,28.490,34.4,1
18918395,-0.366,-0.610,0.183,-0.7518,-0.3807,9.6863,28.502,34.4,1
18928395,-0.366,-0.671,0.122,-0.7548,-0.3831,9.6804,28.473,34.4,1
18938399,-0.366,-0.671,0.122,-0.7715,-0.3801,9.6833,28.461,34.4,1
18948410,-0.366,-0.610,0.183,-0.7572,-0.3645,9.6600,28.504,34.4,1
18958410,-0.427,-0.732,0.183,-0.7673,-0.3741,9.6750,28.492,34.4,1
18968417,-0.305,-0.732,0.183,-0.7434,-0.3765,9.6636,28.473,34.4,1
18978425,-0.366,-0.732,0.183,-0.7524,-0.3759,9.6720,28.461,34.4,1
18988425,-0.366,-0.732,0.183,-0.7440,-0.3855,9.6810,28.461,34.4,1
18998439,-0.366,-0.671,0.183,-0.7488,-0.3897,9.6827,28.490,34.4,1
19008440,-0.366,-0.610,0.183,-0.7655,-0.3903,9.6540,28.490,34.4,1
19018440,-0.366,-0.671,0.122,-0.7494,-0.3819,9.6510,28.457,34.4,1
19028452,-0.366,-0.732,0.244,-0.7458,-0.3633,9.6612,28.504,34.4,1
19038455,-0.305,-0.793,0.183,-0.7673,-0.3591,9.6810,28.465,34.4,1
19048455,-0.366,-0.793,0.183,-0.7673,-0.3717,9.6582,28.492,34.4,1
19058455,-0.366,-0.610,0.183,-0.7733,-0.3843,9.6839,28.447,34.4,1
19068456,-0.366,-0.549,0.183,-0.7494,-0.3765,9.6780,28.516,34.4,1
19078466,-0.488,-0.671,0.122,-0.7554,-0.3645,9.6696,28.510,34.4,1
19088471,-0.427,-0.671,0.183,-0.7380,-0.3693,9.6780,28.482,34.4,1
19098471,-0.366,-0.671,0.244,-0.7524,-0.3771,9.6702,28.439,34.4,1
19108471,-0.427,-0.671,0.183,-0.7506,-0.3765,9.6702,28.477,34.4,1
19118471,-0.366,-0.671,0.122,-0.7464,-0.3579,9.6708,28.510,34.4,1
19128485,-0.366,-0.610,0.244,-0.7626,-0.3735,9.6726,28.473,34.4,1
19138486,-0.305,-0.732,0.183,-0.7494,-0.3705,9.6606,28.516,34.4,1
19148486,-0.366,-0.732,0.122,-0.7410,-0.3765,9.6768,28.516,34.4,1
19158486,-0.305,-0.732,0.122,-0.7356,-0.3663,9.6804,28.473,34.4,1
19168487,-0.305,-0.671,0.122,-0.7356,-0.3723,9.7067,28.496,34.4,1
19178501,-0.305,-0.671,0.183,-0.7548,-0.3932,9.6798,28.496,34.4,1
19188511,-0.427,-0.732,0.183,-0.7793,-0.3651,9.6606,28.527,34.4,1
19198515,-0.427,-0.732,0.183,-0.7452,-0.3735,9.6881,28.461,34.4,1
19208516,-0.427,-0.732,0.244,-0.7296,-0.3699,9.6462,28.484,34.4,1
19218517,-0.427,-0.671,0.244,-0.7356,-0.3669,9.6420,28.486,34.4,1
19228531,-0.366,-0.732,0.244,-0.7626,-0.3645,9.6750,28.506,34.4,1
19238532,-0.366,-0.671,0.183,-0.7661,-0.3597,9.6887,28.455,34.4,1
19248532,-0.427,-0.671,0.244,-0.7338,-0.3843,9.6738,28.473,34.4,1
19258532,-0.366,-0.610,0.183,-0.7572,-0.3837,9.6822,28.488,34.4,1
19268532,-0.366,-0.671,0.122,-0.7554,-0.3693,9.6935,28.475,34.4,1
19278532,-0.366,-0.732,0.122,-0.7476,-0.3843,9.6863,28.475,34.4,1
19288546,-0.244,-0.732,0.122,-0.7560,-0.3609,9.6714,28.469,34.4,1
19298547,-0.305,-0.671,0.122,-0.7512,-0.3944,9.6576,28.455,34.4,1
19308562,-0.366,-0.732,0.183,-0.7566,-0.3645,9.6648,28.463,34.4,1
19318562,-0.305,-0.671,0.183,-0.7673,-0.3531,9.6612,28.473,34.4,1
19328562,-0.366,-0.732,0.122,-0.7518,-0.3705,9.6792,28.492,34.4,1
19338576,-0.366,-0.671,0.183,-0.7398,-0.3759,9.6636,28.480,34.4,1
19348577,-0.366,-0.610,0.183,-0.7620,-0.3681,9.6810,28.490,34.4,1
19358577,-0.366,-0.671,0.122,-0.7428,-0.3681,9.6798,28.512,34.4,1
19368577,-0.366,-0.732,0.183,-0.7626,-0.3663,9.6845,28.496,34.4,1
19378592,-0.305,-0.671,0.122,-0.7626,-0.3813,9.6726,28.451,34.4,1
19388600,-0.305,-0.671,0.122,-0.7626,-0.3813,9.6726,28.467,34.4,1
19398609,-0.427,-0.671,0.122,-0.7560,-0.3825,9.6498,28.480,34.4,1
19408623,-0.366,-0.732,0.183,-0.7602,-0.3735,9.6696,28.500,34.4,1
19418623,-0.366,-0.732,0.183,-0.7578,-0.3633,9.6714,28.500,34.4,1
19428624,-0.244,-0.671,0.122,-0.7314,-0.3567,9.6744,28.518,34.4,1
19438638,-0.427,-0.671,0.183,-0.7673,-0.3819,9.6756,28.447,34.4,1
19448638,-0.488,-0.671,0.122,-0.7673,-0.3777,9.6540,28.521,35.4,1
19458638,-0.366,-0.671,0.183,-0.7548,-0.3867,9.6528,28.506,34.4,1
19468638,-0.366,-0.671,0.183,-0.7572,-0.3819,9.6780,28.480,34.4,1
19478638,-0.366,-0.671,0.183,-0.7494,-0.3789,9.6959,28.455,34.4,1
19488653,-0.427,-0.610,0.244,-0.7338,-0.3891,9.6504,28.508,34.4,1
19498666,-0.427,-0.671,0.244,-0.7620,-0.3699,9.6642,28.492,34.4,1
19508669,-0.366,-0.671,0.122,-0.7494,-0.3771,9.6648,28.477,34.4,1
19518669,-0.427,-0.732,0.244,-0.7703,-0.3789,9.6594,28.537,34.4,1
19528681,-0.366,-0.732,0.183,-0.7548,-0.3609,9.6600,28.488,34.4,1
19538684,-0.305,-0.732,0.183,-0.7500,-0.3783,9.6576,28.527,34.4,1
19548684,-0.366,-0.610,0.183,-0.7626,-0.3705,9.6666,28.484,34.4,1
19558685,-0.305,-0.671,0.183,-0.7374,-0.3711,9.6738,28.484,34.4,1
19568698,-0.366,-0.671,0.183,-0.7614,-0.3693,9.6636,28.492,34.4,1
19578698,-0.366,-0.671,0.183,-0.7632,-0.3723,9.6708,28.504,34.4,1
19588700,-0.244,-0.671,0.122,-0.7536,-0.3765,9.6660,28.488,34.4,1
