timestamp_us,test_id,phase,run_id,cmd_v,cmd_omega,pwm_l,pwm_r,mode_l,mode_r,raw_angle_l,raw_angle_r,delta_angle_l,delta_angle_r,steps_l,steps_r,rpm_l,rpm_r,accel_x,accel_y,accel_z,gyro_x,gyro_y,gyro_z,imu_temp,battery_voltage,driver_voltage,driver_current,driver_power,encoder_valid_l,encoder_valid_r,imu_valid,ina_valid
1308841,1,0,1,0.000,0.000,0.000,0.000,0,0,52,3246,0,0,0,0,0.00,0.00,-0.114,-0.663,10.001,-0.793,0.488,0.488,28.70,7.75,0.00,2.5,0.0,1,1,1,1
1318844,1,0,1,0.000,0.000,0.000,0.000,0,0,52,3246,0,0,0,0,0.00,0.00,-0.131,-0.671,9.982,-0.854,0.427,0.488,28.65,7.74,0.00,2.5,0.0,1,1,1,1
1328852,1,0,1,0.000,0.000,0.000,0.000,0,0,52,3246,0,0,0,0,0.00,0.00,-0.119,-0.660,9.995,-0.732,0.427,0.488,28.63,7.72,0.00,2.5,0.0,1,1,1,1
1338859,1,0,1,0.000,0.000,0.000,0.000,0,0,52,3246,0,0,0,0,0.00,0.00,-0.127,-0.675,9.997,-0.732,0.488,0.427,28.70,7.75,0.00,2.5,0.0,1,1,1,1
1348867,1,0,1,0.000,0.000,0.000,0.000,0,0,52,3246,0,0,0,0,0.00,0.00,-0.123,-0.669,10.001,-0.793,0.427,0.427,28.66,7.75,0.00,2.8,0.0,1,1,1,1
1358874,1,0,1,0.000,0.000,0.000,0.000,0,0,52,3246,0,0,0,0,0.00,0.00,-0.118,-0.667,9.987,-0.793,0.427,0.488,28.66,7.73,0.00,2.5,0.0,1,1,1,1
1368874,1,0,1,0.000,0.000,0.000,0.000,0,0,52,3246,0,0,0,0,0.00,0.00,-0.108,-0.668,9.999,-0.793,0.488,0.427,28.66,7.75,0.00,2.5,0.0,1,1,1,1
1378874,1,0,1,0.000,0.000,0.000,0.000,0,0,52,3246,0,0,0,0,0.00,0.00,-0.123,-0.664,9.993,-0.854,0.427,0.366,28.63,7.75,0.00,2.5,0.0,1,1,1,1
1388882,1,0,1,0.000,0.000,0.000,0.000,0,0,52,3246,0,0,0,0,0.00,0.00,-0.113,-0.672,9.991,-0.793,0.488,0.427,28.64,7.74,0.00,2.5,0.0,1,1,1,1
1398889,1,0,1,0.000,0.000,0.000,0.000,0,0,52,3246,0,0,0,0,0.00,0.00,-0.124,-0.672,9.992,-0.671,0.488,0.488,28.70,7.74,0.00,2.8,0.0,1,1,1,1
1408889,1,0,1,0.000,0.000,0.000,0.000,0,0,52,3246,0,0,0,0,0.00,0.00,-0.136,-0.681,9.993,-0.732,0.488,0.488,28.69,7.74,0.00,2.5,0.0,1,1,1,1
1418889,1,0,1,0.000,0.000,0.000,0.000,0,0,52,3246,0,0,0,0,0.00,0.00,-0.123,-0.678,9.971,-0.793,0.427,0.427,28.66,7.75,0.00,2.5,0.0,1,1,1,1
1428897,1,0,1,0.000,0.000,0.000,0.000,0,0,52,3246,0,0,0,0,0.00,0.00,-0.107,-0.662,9.990,-0.732,0.366,0.488,28.66,7.73,0.00,2.5,0.0,1,1,1,1
1438904,1,0,1,0.000,0.000,0.000,0.000,0,0,52,3246,0,0,0,0,0.00,0.00,-0.130,-0.675,9.995,-0.732,0.366,0.488,28.63,7.75,0.00,2.5,0.0,1,1,1,1
1448904,1,0,1,0.000,0.000,0.000,0.000,0,0,52,3246,0,0,0,0,0.00,0.00,-0.119,-0.673,9.984,-0.671,0.427,0.427,28.66,7.75,0.00,2.5,0.0,1,1,1,1
1458913,1,0,1,0.000,0.000,0.000,0.000,0,0,52,3246,0,0,0,0,0.00,0.00,-0.111,-0.649,10.007,-0.671,0.427,0.488,28.67,7.74,0.00,2.8,0.0,1,1,1,1
1468919,1,0,1,0.000,0.000,0.000,0.000,0,0,52,3246,0,0,0,0,0.00,0.00,-0.126,-0.646,9.998,-0.915,0.488,0.549,28.73,7.74,0.00,2.8,0.0,1,1,1,1
1478919,1,0,1,0.000,0.000,0.000,0.000,0,0,52,3246,0,0,0,0,0.00,0.00,-0.121,-0.682,9.989,-0.915,0.549,0.427,28.69,7.75,0.00,2.5,0.0,1,1,1,1
1488928,1,0,1,0.000,0.000,0.000,0.000,0,0,52,3246,0,0,0,0,0.00,0.00,-0.132,-0.661,9.976,-0.793,0.427,0.427,28.70,7.75,0.00,2.5,0.0,1,1,1,1
1498928,1,0,1,0.000,0.000,0.000,0.000,0,0,52,3246,0,0,0,0,0.00,0.00,-0.119,-0.660,10.005,-0.854,0.488,0.427,28.68,7.75,0.00,2.5,0.0,1,1,1,1
1508935,1,0,1,0.000,0.000,0.000,0.000,0,0,52,3246,0,0,0,0,0.00,0.00,-0.124,-0.672,9.997,-0.793,0.488,0.427,28.68,7.75,0.00,2.5,0.0,1,1,1,1
1518935,1,0,1,0.000,0.000,0.000,0.000,0,0,52,3246,0,0,0,0,0.00,0.00,-0.126,-0.667,10.017,-0.732,0.488,0.427,28.69,7.74,0.00,2.2,0.0,1,1,1,1
1528943,1,0,1,0.000,0.000,0.000,0.000,0,0,52,3246,0,0,0,0,0.00,0.00,-0.127,-0.675,9.994,-0.732,0.427,0.366,28.68,7.74,0.00,2.2,0.0,1,1,1,1
1538950,1,0,1,0.000,0.000,0.000,0.000,0,0,52,3246,0,0,0,0,0.00,0.00,-0.129,-0.689,10.001,-0.793,0.366,0.366,28.68,7.75,0.00,2.8,0.0,1,1,1,1
1548950,1,0,1,0.000,0.000,0.000,0.000,0,0,52,3246,0,0,0,0,0.00,0.00,-0.115,-0.687,9.989,-0.793,0.488,0.488,28.65,7.75,0.00,2.5,0.0,1,1,1,1
1558958,1,0,1,0.000,0.000,0.000,0.000,0,0,52,3246,0,0,0,0,0.00,0.00,-0.120,-0.671,9.981,-0.915,0.488,0.488,28.68,7.74,0.00,2.5,0.0,1,1,1,1
1568958,1,0,1,0.000,0.000,0.000,0.000,0,0,52,3246,0,0,0,0,0.00,0.00,-0.127,-0.652,9.989,-0.732,0.366,0.427,28.73,7.75,0.00,2.5,0.0,1,1,1,1
1578965,1,0,1,0.000,0.000,0.000,0.000,0,0,52,3246,0,0,0,0,0.00,0.00,-0.140,-0.662,9.990,-0.671,0.427,0.366,28.69,7.74,0.00,2.5,0.0,1,1,1,1
1588965,1,0,1,0.000,0.000,0.000,0.000,0,0,52,3246,0,0,0,0,0.00,0.00,-0.136,-0.681,9.987,-0.793,0.488,0.488,28.66,7.75,0.00,2.5,0.0,1,1,1,1
1598973,1,0,1,0.000,0.000,0.000,0.000,0,0,52,3246,0,0,0,0,0.00,0.00,-0.126,-0.679,10.026,-0.793,0.427,0.488,28.67,7.75,0.00,2.5,0.0,1,1,1,1
1608981,1,0,1,0.000,0.000,0.000,0.000,0,0,52,3246,0,0,0,0,0.00,0.00,-0.127,-0.667,10.015,-0.671,0.427,0.366,28.71,7.75,0.00,2.5,0.0,1,1,1,1
1618989,1,0,1,0.000,0.000,0.000,0.000,0,0,52,3246,0,0,0,0,0.00,0.00,-0.128,-0.657,9.995,-0.671,0.427,0.366,28.67,7.75,0.00,2.8,0.0,1,1,1,1
1628989,1,0,1,0.000,0.000,0.000,0.000,0,0,52,3246,0,0,0,0,0.00,0.00,-0.116,-0.663,10.000,-0.732,0.427,0.488,28.65,7.74,0.00,2.5,0.0,1,1,1,1
1638995,1,0,1,0.000,0.000,0.000,0.000,0,0,52,3246,0,0,0,0,0.00,0.00,-0.133,-0.680,9.967,-0.671,0.488,0.427,28.68,7.75,0.00,2.5,0.0,1,1,1,1
1648995,1,0,1,0.000,0.000,0.000,0.000,0,0,52,3246,0,0,0,0,0.00,0.00,-0.131,-0.661,9.996,-0.793,0.366,0.366,28.68,7.76,0.00,2.5,0.0,1,1,1,1
1659004,1,0,1,0.000,0.000,0.000,0.000,0,0,52,3246,0,0,0,0,0.00,0.00,-0.131,-0.664,9.991,-0.793,0.427,0.366,28.66,7.74,0.00,2.5,0.0,1,1,1,1
1669004,1,0,1,0.000,0.000,0.000,0.000,0,0,52,3246,0,0,0,0,0.00,0.00,-0.124,-0.671,9.989,-0.854,0.366,0.427,28.69,7.74,0.00,2.5,0.0,1,1,1,1
1679004,1,0,1,0.000,0.000,0.000,0.000,0,0,52,3246,0,0,0,0,0.00,0.00,-0.128,-0.676,9.987,-0.854,0.427,0.427,28.67,7.74,0.00,2.2,0.0,1,1,1,1
1689004,1,0,1,0.000,0.000,0.000,0.000,0,0,52,3246,0,0,0,0,0.00,0.00,-0.107,-0.658,9.971,-0.732,0.427,0.366,28.68,7.79,0.00,2.8,0.0,1,1,1,1
1699004,1,0,1,0.000,0.000,0.000,0.000,0,0,52,3246,0,0,0,0,0.00,0.00,-0.119,-0.666,9.990,-0.671,0.366,0.366,28.65,7.74,0.00,2.5,0.0,1,1,1,1
1709010,1,0,1,0.000,0.000,0.000,0.000,0,0,52,3246,0,0,0,0,0.00,0.00,-0.138,-0.676,10.002,-0.854,0.427,0.427,28.65,7.74,0.00,2.5,0.0,1,1,1,1
1719019,1,0,1,0.000,0.000,0.000,0.000,0,0,52,3246,0,0,0,0,0.00,0.00,-0.126,-0.664,9.995,-0.793,0.488,0.427,28.68,7.75,0.00,2.5,0.0,1,1,1,1
1729026,1,0,1,0.000,0.000,0.000,0.000,0,0,52,3246,0,0,0,0,0.00,0.00,-0.113,-0.675,9.988,-0.793,0.427,0.488,28.68,7.74,0.00,2.2,0.0,1,1,1,1
1739034,1,0,1,0.000,0.000,0.000,0.000,0,0,52,3246,0,0,0,0,0.00,0.00,-0.122,-0.671,9.973,-0.793,0.427,0.488,28.64,7.75,0.00,2.5,0.0,1,1,1,1
1749041,1,0,1,0.000,0.000,0.000,0.000,0,0,52,3246,0,0,0,0,0.00,0.00,-0.135,-0.676,9.994,-0.732,0.488,0.488,28.68,7.74,0.00,2.5,0.0,1,1,1,1
1759041,1,0,1,0.000,0.000,0.000,0.000,0,0,52,3246,0,0,0,0,0.00,0.00,-0.111,-0.661,9.986,-0.610,0.488,0.427,28.67,7.75,0.00,2.8,0.0,1,1,1,1
1769041,1,0,1,0.000,0.000,0.000,0.000,0,0,52,3246,0,0,0,0,0.00,0.00,-0.122,-0.677,9.986,-0.732,0.427,0.488,28.68,7.75,0.00,2.5,0.0,1,1,1,1
1779049,1,0,1,0.000,0.000,0.000,0.000,0,0,52,3247,0,1,0,1,0.00,0.00,-0.110,-0.679,9.996,-0.793,0.366,0.366,28.68,7.74,0.00,2.5,0.0,1,1,1,1
1789056,1,0,1,0.000,0.000,0.000,0.000,0,0,52,3246,0,-1,0,0,0.00,0.00,-0.102,-0.671,9.997,-0.854,0.427,0.427,28.70,7.75,0.00,2.5,0.0,1,1,1,1
1799064,1,0,1,0.000,0.000,0.000,0.000,0,0,52,3246,0,0,0,0,0.00,0.00,-0.105,-0.671,9.975,-0.793,0.366,0.488,28.67,7.75,0.00,2.8,0.0,1,1,1,1
1809071,1,0,1,0.000,0.000,0.000,0.000,0,0,52,3246,0,0,0,0,0.00,0.00,-0.116,-0.670,9.983,-0.793,0.427,0.427,28.64,7.75,0.00,2.5,0.0,1,1,1,1
1819071,1,0,1,0.000,0.000,0.000,0.000,0,0,52,3246,0,0,0,0,0.00,0.00,-0.104,-0.674,10.003,-0.793,0.427,0.427,28.67,7.74,0.00,2.5,0.0,1,1,1,1
1829071,1,0,1,0.000,0.000,0.000,0.000,0,0,52,3246,0,0,0,0,0.00,0.00,-0.127,-0.671,9.978,-0.793,0.427,0.488,28.67,7.76,0.00,2.5,0.0,1,1,1,1
1839071,1,0,1,0.000,0.000,0.000,0.000,0,0,52,3246,0,0,0,0,0.00,0.00,-0.124,-0.670,10.008,-0.793,0.427,0.488,28.65,7.74,0.00,2.8,0.0,1,1,1,1
1849080,1,0,1,0.000,0.000,0.000,0.000,0,0,52,3246,0,0,0,0,0.00,0.00,-0.123,-0.664,10.011,-0.732,0.427,0.427,28.73,7.75,0.00,2.5,0.0,1,1,1,1
1859080,1,0,1,0.000,0.000,0.000,0.000,0,0,52,3246,0,0,0,0,0.00,0.00,-0.119,-0.667,9.980,-0.671,0.427,0.427,28.68,7.74,0.00,2.5,0.0,1,1,1,1
1869086,1,0,1,0.000,0.000,0.000,0.000,0,0,52,3246,0,0,0,0,0.00,0.00,-0.121,-0.672,9.982,-0.793,0.427,0.366,28.75,7.72,0.00,2.5,0.0,1,1,1,1
1879086,1,0,1,0.000,0.000,0.000,0.000,0,0,52,3246,0,0,0,0,0.00,0.00,-0.113,-0.668,9.982,-0.793,0.427,0.366,28.75,7.75,0.00,2.8,0.0,1,1,1,1
1889086,1,0,1,0.000,0.000,0.000,0.000,0,0,52,3246,0,0,0,0,0.00,0.00,-0.115,-0.687,9.984,-0.732,0.427,0.427,28.71,7.77,0.00,2.5,0.0,1,1,1,1
1899086,1,0,1,0.000,0.000,0.000,0.000,0,0,52,3246,0,0,0,0,0.00,0.00,-0.126,-0.676,9.993,-0.854,0.427,0.366,28.68,7.75,0.00,2.5,0.0,1,1,1,1
1909095,1,0,1,0.000,0.000,0.000,0.000,0,0,52,3246,0,0,0,0,0.00,0.00,-0.124,-0.676,10.008,-0.793,0.427,0.427,28.71,7.75,0.00,2.5,0.0,1,1,1,1
1919101,1,0,1,0.000,0.000,0.000,0.000,0,0,52,3246,0,0,0,0,0.00,0.00,-0.120,-0.678,10.011,-0.732,0.488,0.488,28.67,7.74,0.00,2.5,0.0,1,1,1,1
1929101,1,0,1,0.000,0.000,0.000,0.000,0,0,52,3246,0,0,0,0,0.00,0.00,-0.117,-0.684,10.003,-0.732,0.427,0.549,28.67,7.75,0.00,2.5,0.0,1,1,1,1
1939110,1,0,1,0.000,0.000,0.000,0.000,0,0,52,3246,0,0,0,0,0.00,0.00,-0.145,-0.675,10.005,-0.671,0.366,0.427,28.71,7.75,0.00,2.5,0.0,1,1,1,1
1949117,1,0,1,0.000,0.000,0.000,0.000,0,0,52,3246,0,0,0,0,0.00,0.00,-0.132,-0.673,10.002,-0.793,0.427,0.427,28.70,7.73,0.00,2.5,0.0,1,1,1,1
1959125,1,0,1,0.000,0.000,0.000,0.000,0,0,52,3246,0,0,0,0,0.00,0.00,-0.120,-0.672,9.978,-0.854,0.427,0.366,28.67,7.75,0.00,2.5,0.0,1,1,1,1
1969132,1,0,1,0.000,0.000,0.000,0.000,0,0,52,3246,0,0,0,0,0.00,0.00,-0.124,-0.675,10.001,-0.793,0.427,0.427,28.65,7.76,0.00,2.5,0.0,1,1,1,1
1979132,1,0,1,0.000,0.000,0.000,0.000,0,0,52,3246,0,0,0,0,0.00,0.00,-0.129,-0.683,9.994,-0.793,0.427,0.488,28.66,7.75,0.00,2.5,0.0,1,1,1,1
1989132,1,0,1,0.000,0.000,0.000,0.000,0,0,52,3246,0,0,0,0,0.00,0.00,-0.133,-0.667,9.990,-0.793,0.427,0.488,28.66,7.75,0.00,2.5,0.0,1,1,1,1
1999140,1,0,1,0.000,0.000,0.000,0.000,0,0,52,3246,0,0,0,0,0.00,0.00,-0.110,-0.667,9.978,-0.793,0.488,0.427,28.70,7.76,0.00,2.5,0.0,1,1,1,1
2009140,1,0,1,0.000,0.000,0.000,0.000,0,0,52,3246,0,0,0,0,0.00,0.00,-0.130,-0.680,10.000,-0.671,0.488,0.366,28.67,7.73,0.00,2.5,0.0,1,1,1,1
2019140,1,0,1,0.000,0.000,0.000,0.000,0,0,52,3246,0,0,0,0,0.00,0.00,-0.127,-0.667,9.999,-0.732,0.427,0.427,28.66,7.75,0.00,2.8,0.0,1,1,1,1
2029147,1,0,1,0.000,0.000,0.000,0.000,0,0,52,3246,0,0,0,0,0.00,0.00,-0.117,-0.670,10.004,-0.732,0.427,0.427,28.65,7.76,0.00,2.5,0.0,1,1,1,1
2039155,1,0,1,0.000,0.000,0.000,0.000,0,0,52,3246,0,0,0,0,0.00,0.00,-0.120,-0.679,9.981,-0.793,0.427,0.427,28.64,7.75,0.00,2.5,0.0,1,1,1,1
2049155,1,0,1,0.000,0.000,0.000,0.000,0,0,52,3246,0,0,0,0,0.00,0.00,-0.122,-0.666,9.973,-0.793,0.427,0.488,28.64,7.75,0.00,2.5,0.0,1,1,1,1
2059162,1,0,1,0.000,0.000,0.000,0.000,0,0,52,3246,0,0,0,0,0.00,0.00,-0.121,-0.662,9.979,-0.793,0.488,0.549,28.67,7.81,0.00,2.5,0.0,1,1,1,1
2069162,1,0,1,0.000,0.000,0.000,0.000,0,0,52,3246,0,0,0,0,0.00,0.00,-0.123,-0.663,9.983,-0.732,0.488,0.427,28.69,7.75,0.00,2.5,0.0,1,1,1,1
2079171,1,0,1,0.000,0.000,0.000,0.000,0,0,52,3246,0,0,0,0,0.00,0.00,-0.135,-0.664,9.979,-0.854,0.366,0.427,28.73,7.76,0.00,2.5,0.0,1,1,1,1
2089171,1,0,1,0.000,0.000,0.000,0.000,0,0,52,3246,0,0,0,0,0.00,0.00,-0.117,-0.672,9.990,-0.793,0.366,0.427,28.69,7.73,0.00,2.8,0.0,1,1,1,1
2099171,1,0,1,0.000,0.000,0.000,0.000,0,0,52,3246,0,0,0,0,0.00,0.00,-0.126,-0.679,9.996,-0.732,0.427,0.549,28.64,7.75,0.00,2.5,0.0,1,1,1,1
2109177,1,0,1,0.000,0.000,0.000,0.000,0,0,52,3246,0,0,0,0,0.00,0.00,-0.133,-0.669,10.001,-0.732,0.427,0.488,28.68,7.74,0.00,2.5,0.0,1,1,1,1
2119177,1,0,1,0.000,0.000,0.000,0.000,0,0,52,3246,0,0,0,0,0.00,0.00,-0.113,-0.666,9.983,-0.793,0.427,0.427,28.67,7.75,0.00,2.5,0.0,1,1,1,1
2129186,1,0,1,0.000,0.000,0.000,0.000,0,0,52,3246,0,0,0,0,0.00,0.00,-0.114,-0.676,10.001,-0.793,0.427,0.427,28.70,7.76,0.00,2.5,0.0,1,1,1,1
2139193,1,0,1,0.000,0.000,0.000,0.000,0,0,52,3246,0,0,0,0,0.00,0.00,-0.123,-0.676,9.970,-0.793,0.366,0.488,28.66,7.74,0.00,2.2,0.0,1,1,1,1
2149201,1,0,1,0.000,0.000,0.000,0.000,0,0,52,3246,0,0,0,0,0.00,0.00,-0.129,-0.658,9.993,-0.854,0.427,0.488,28.69,7.77,0.00,2.5,0.0,1,1,1,1
2159208,1,0,1,0.000,0.000,0.000,0.000,0,0,52,3246,0,0,0,0,0.00,0.00,-0.130,-0.660,9.994,-0.793,0.488,0.488,28.69,7.74,0.00,2.8,0.0,1,1,1,1
2169216,1,0,1,0.000,0.000,0.000,0.000,0,0,52,3246,0,0,0,0,0.00,0.00,-0.115,-0.649,9.993,-0.732,0.488,0.427,28.67,7.75,0.00,2.5,0.0,1,1,1,1
2179216,1,0,1,0.000,0.000,0.000,0.000,0,0,52,3246,0,0,0,0,0.00,0.00,-0.119,-0.660,10.001,-0.793,0.549,0.488,28.68,7.74,0.00,2.5,0.0,1,1,1,1
2189223,1,0,1,0.000,0.000,0.000,0.000,0,0,52,3246,0,0,0,0,0.00,0.00,-0.126,-0.666,10.018,-0.732,0.427,0.427,28.68,7.75,0.00,2.2,0.0,1,1,1,1
2199224,1,0,1,0.000,0.000,0.000,0.000,0,0,52,3246,0,0,0,0,0.00,0.00,-0.127,-0.675,9.993,-0.793,0.427,0.427,28.69,7.75,0.00,2.5,0.0,1,1,1,1
2209231,1,0,1,0.000,0.000,0.000,0.000,0,0,52,3246,0,0,0,0,0.00,0.00,-0.143,-0.663,9.992,-0.732,0.488,0.427,28.73,7.74,0.00,2.5,0.0,1,1,1,1
2219238,1,0,1,0.000,0.000,0.000,0.000,0,0,52,3246,0,0,0,0,0.00,0.00,-0.122,-0.663,9.983,-0.732,0.427,0.427,28.73,7.76,0.00,2.5,0.0,1,1,1,1
2229247,1,0,1,0.000,0.000,0.000,0.000,0,0,52,3246,0,0,0,0,0.00,0.00,-0.130,-0.694,10.014,-0.793,0.427,0.488,28.69,7.74,0.00,2.5,0.0,1,1,1,1
2239253,1,0,1,0.000,0.000,0.000,0.000,0,0,52,3246,0,0,0,0,0.00,0.00,-0.124,-0.669,9.981,-0.854,0.488,0.427,28.66,7.75,0.00,2.5,0.0,1,1,1,1
2249262,1,0,1,0.000,0.000,0.000,0.000,0,0,52,3246,0,0,0,0,0.00,0.00,-0.130,-0.655,9.975,-0.732,0.488,0.488,28.71,7.75,0.00,2.5,0.0,1,1,1,1
2259262,1,0,1,0.000,0.000,0.000,0.000,0,0,52,3246,0,0,0,0,0.00,0.00,-0.122,-0.678,9.982,-0.793,0.427,0.427,28.70,7.75,0.00,2.2,0.0,1,1,1,1
2269262,1,0,1,0.000,0.000,0.000,0.000,0,0,52,3246,0,0,0,0,0.00,0.00,-0.130,-0.660,9.982,-0.793,0.488,0.488,28.68,7.75,0.00,2.5,0.0,1,1,1,1
2279262,1,0,1,0.000,0.000,0.000,0.000,0,0,52,3246,0,0,0,0,0.00,0.00,-0.120,-0.666,9.969,-0.732,0.427,0.488,28.67,7.75,0.00,2.5,0.0,1,1,1,1
2289268,1,0,1,0.000,0.000,0.000,0.000,0,0,52,3246,0,0,0,0,0.00,0.00,-0.106,-0.667,9.968,-0.793,0.427,0.366,28.69,7.75,0.00,2.8,0.0,1,1,1,1
2299277,1,0,1,0.000,0.000,0.000,0.000,0,0,52,3246,0,0,0,0,0.00,0.00,-0.117,-0.670,9.971,-0.732,0.427,0.366,28.68,7.75,0.00,2.8,0.0,1,1,1,1
2309301,1,0,1,0.000,0.000,0.000,0.000,0,0,52,3246,0,0,0,0,0.00,0.00,-0.131,-0.673,10.000,-0.793,0.366,0.305,28.67,7.74,0.00,2.5,0.0,1,1,1,1
2319303,1,0,1,0.000,0.000,0.000,0.000,0,0,52,3246,0,0,0,0,0.00,0.00,-0.120,-0.669,9.983,-0.732,0.427,0.427,28.70,7.76,0.00,2.8,0.0,1,1,1,1
2329303,1,0,1,0.000,0.000,0.000,0.000,0,0,52,3246,0,0,0,0,0.00,0.00,-0.123,-0.678,9.995,-0.732,0.366,0.488,28.67,7.75,0.00,2.5,0.0,1,1,1,1
2339303,1,0,1,0.000,0.000,0.000,0.000,0,0,52,3246,0,0,0,0,0.00,0.00,-0.126,-0.677,9.971,-0.793,0.366,0.488,28.69,7.74,0.00,2.5,0.0,1,1,1,1
2349312,1,0,1,0.000,0.000,0.000,0.000,0,0,52,3246,0,0,0,0,0.00,0.00,-0.124,-0.662,9.983,-0.793,0.427,0.488,28.69,7.74,0.00,2.5,0.0,1,1,1,1
2359319,1,0,1,0.000,0.000,0.000,0.000,0,0,52,3246,0,0,0,0,0.00,0.00,-0.117,-0.666,9.998,-0.793,0.488,0.549,28.76,7.74,0.00,2.5,0.0,1,1,1,1
2369327,1,0,1,0.000,0.000,0.000,0.000,0,0,52,3246,0,0,0,0,0.00,0.00,-0.126,-0.694,9.985,-0.793,0.427,0.488,28.71,7.79,0.00,2.5,0.0,1,1,1,1
2379327,1,0,1,0.000,0.000,0.000,0.000,0,0,52,3246,0,0,0,0,0.00,0.00,-0.124,-0.697,9.966,-0.732,0.549,0.427,28.69,7.74,0.00,2.5,0.0,1,1,1,1
2389327,1,0,1,0.000,0.000,0.000,0.000,0,0,52,3246,0,0,0,0,0.00,0.00,-0.132,-0.678,9.981,-0.793,0.427,0.366,28.69,7.73,0.00,2.5,0.0,1,1,1,1
2399334,1,0,1,0.000,0.000,0.000,0.000,0,0,52,3246,0,0,0,0,0.00,0.00,-0.123,-0.682,10.001,-0.732,0.427,0.366,28.71,7.73,0.00,2.5,0.0,1,1,1,1
2409334,1,0,1,0.000,0.000,0.000,0.000,0,0,52,3246,0,0,0,0,0.00,0.00,-0.122,-0.671,9.998,-0.732,0.488,0.427,28.75,7.75,0.00,2.5,0.0,1,1,1,1
2419334,1,0,1,0.000,0.000,0.000,0.000,0,0,52,3246,0,0,0,0,0.00,0.00,-0.124,-0.665,10.005,-0.793,0.427,0.427,28.70,7.75,0.00,2.5,0.0,1,1,1,1
2429334,1,0,1,0.000,0.000,0.000,0.000,0,0,52,3246,0,0,0,0,0.00,0.00,-0.123,-0.669,10.007,-0.732,0.488,0.488,28.69,7.74,0.00,2.8,0.0,1,1,1,1
2439334,1,0,1,0.000,0.000,0.000,0.000,0,0,52,3246,0,0,0,0,0.00,0.00,-0.142,-0.666,10.002,-0.854,0.427,0.427,28.70,7.74,0.00,2.5,0.0,1,1,1,1
2449342,1,0,1,0.000,0.000,0.000,0.000,0,0,52,3246,0,0,0,0,0.00,0.00,-0.115,-0.663,9.984,-0.854,0.366,0.427,28.71,7.74,0.00,2.8,0.0,1,1,1,1
2459342,1,0,1,0.000,0.000,0.000,0.000,0,0,52,3246,0,0,0,0,0.00,0.00,-0.123,-0.676,9.988,-0.793,0.427,0.427,28.70,7.75,0.00,2.5,0.0,1,1,1,1
2469349,1,0,1,0.000,0.000,0.000,0.000,0,0,52,3246,0,0,0,0,0.00,0.00,-0.122,-0.672,10.002,-0.732,0.427,0.366,28.71,7.75,0.00,2.5,0.0,1,1,1,1
2479357,1,0,1,0.000,0.000,0.000,0.000,0,0,52,3246,0,0,0,0,0.00,0.00,-0.115,-0.670,9.970,-0.732,0.488,0.427,28.71,7.75,0.00,2.5,0.0,1,1,1,1
2489364,1,0,1,0.000,0.000,0.000,0.000,0,0,52,3246,0,0,0,0,0.00,0.00,-0.130,-0.664,9.998,-0.793,0.488,0.427,28.71,7.75,0.00,2.5,0.0,1,1,1,1
2499373,1,0,1,0.000,0.000,0.000,0.000,0,0,52,3246,0,0,0,0,0.00,0.00,-0.133,-0.667,10.010,-0.793,0.427,0.488,28.69,7.75,0.00,2.8,0.0,1,1,1,1
2509373,1,0,1,0.000,0.000,0.000,0.000,0,0,52,3246,0,0,0,0,0.00,0.00,-0.118,-0.679,9.992,-0.793,0.488,0.427,28.68,7.75,0.00,2.5,0.0,1,1,1,1
2519379,1,0,1,0.000,0.000,0.000,0.000,0,0,52,3246,0,0,0,0,0.00,0.00,-0.124,-0.664,10.002,-0.732,0.488,0.488,28.68,7.75,0.00,2.5,0.0,1,1,1,1
2529388,1,0,1,0.000,0.000,0.000,0.000,0,0,52,3246,0,0,0,0,0.00,0.00,-0.135,-0.655,9.995,-0.671,0.427,0.427,28.70,7.75,0.00,2.2,0.0,1,1,1,1
2539394,1,0,1,0.000,0.000,0.000,0.000,0,0,52,3246,0,0,0,0,0.00,0.00,-0.132,-0.675,10.004,-0.793,0.488,0.427,28.66,7.74,0.00,2.8,0.0,1,1,1,1
2549403,1,0,1,0.000,0.000,0.000,0.000,0,0,52,3246,0,0,0,0,0.00,0.00,-0.125,-0.682,9.965,-0.793,0.488,0.488,28.66,7.75,0.00,2.5,0.0,1,1,1,1
2559410,1,0,1,0.000,0.000,0.000,0.000,0,0,52,3246,0,0,0,0,0.00,0.00,-0.127,-0.664,10.003,-0.793,0.488,0.549,28.68,7.76,0.00,2.5,0.0,1,1,1,1
2569425,1,0,1,0.000,0.000,0.000,0.000,0,0,52,3246,0,0,0,0,0.00,0.00,-0.121,-0.664,10.002,-0.793,0.427,0.427,28.69,7.74,0.00,2.5,0.0,1,1,1,1
2579425,1,0,1,0.000,0.000,0.000,0.000,0,0,52,3246,0,0,0,0,0.00,0.00,-0.124,-0.678,9.989,-0.854,0.427,0.427,28.71,7.74,0.00,2.8,0.0,1,1,1,1
2589433,1,0,1,0.000,0.000,0.000,0.000,0,0,52,3246,0,0,0,0,0.00,0.00,-0.119,-0.682,10.002,-0.854,0.488,0.488,28.69,7.74,0.00,2.5,0.0,1,1,1,1
2599440,1,0,1,0.000,0.000,0.000,0.000,0,0,52,3246,0,0,0,0,0.00,0.00,-0.127,-0.685,10.004,-0.793,0.488,0.427,28.73,7.75,0.00,2.5,0.0,1,1,1,1
2609449,1,0,1,0.000,0.000,0.000,0.000,0,0,52,3246,0,0,0,0,0.00,0.00,-0.122,-0.666,9.989,-0.793,0.427,0.427,28.68,7.74,0.00,2.5,0.0,1,1,1,1
2619455,1,0,1,0.000,0.000,0.000,0.000,0,0,52,3246,0,0,0,0,0.00,0.00,-0.129,-0.685,9.992,-0.671,0.427,0.427,28.69,7.74,0.00,2.5,0.0,1,1,1,1
2629464,1,0,1,0.000,0.000,0.000,0.000,0,0,52,3246,0,0,0,0,0.00,0.00,-0.126,-0.662,10.005,-0.671,0.488,0.488,28.71,7.74,0.00,2.5,0.0,1,1,1,1
2639470,1,0,1,0.000,0.000,0.000,0.000,0,0,52,3246,0,0,0,0,0.00,0.00,-0.135,-0.657,9.986,-0.793,0.488,0.488,28.71,7.75,0.00,2.5,0.0,1,1,1,1
2649470,1,0,1,0.000,0.000,0.000,0.000,0,0,52,3246,0,0,0,0,0.00,0.00,-0.132,-0.657,9.997,-0.793,0.427,0.427,28.68,7.75,0.00,2.5,0.0,1,1,1,1
2659479,1,0,1,0.000,0.000,0.000,0.000,0,0,52,3246,0,0,0,0,0.00,0.00,-0.122,-0.670,9.984,-0.732,0.549,0.427,28.70,7.76,0.00,2.5,0.0,1,1,1,1
2669485,1,0,1,0.000,0.000,0.000,0.000,0,0,52,3246,0,0,0,0,0.00,0.00,-0.126,-0.689,9.992,-0.793,0.549,0.427,28.68,7.74,0.00,2.5,0.0,1,1,1,1
2679494,1,0,1,0.000,0.000,0.000,0.000,0,0,52,3246,0,0,0,0,0.00,0.00,-0.147,-0.672,9.990,-0.793,0.488,0.427,28.72,7.75,0.00,2.8,0.0,1,1,1,1
2689501,1,0,1,0.000,0.000,0.000,0.000,0,0,52,3246,0,0,0,0,0.00,0.00,-0.127,-0.660,9.992,-0.732,0.366,0.427,28.70,7.75,0.00,2.5,0.0,1,1,1,1
2699509,1,0,1,0.000,0.000,0.000,0.000,0,0,52,3246,0,0,0,0,0.00,0.00,-0.114,-0.670,9.996,-0.793,0.427,0.488,28.67,7.74,0.00,2.5,0.0,1,1,1,1
2709509,1,0,1,0.000,0.000,0.000,0.000,0,0,52,3246,0,0,0,0,0.00,0.00,-0.117,-0.663,9.974,-0.732,0.427,0.549,28.68,7.76,0.00,2.5,0.0,1,1,1,1
2719516,1,0,1,0.000,0.000,0.000,0.000,0,0,52,3246,0,0,0,0,0.00,0.00,-0.120,-0.658,9.986,-0.671,0.427,0.488,28.68,7.74,0.00,2.5,0.0,1,1,1,1
2729524,1,0,1,0.000,0.000,0.000,0.000,0,0,52,3246,0,0,0,0,0.00,0.00,-0.104,-0.676,9.995,-0.732,0.427,0.427,28.68,7.76,0.00,2.5,0.0,1,1,1,1
2739531,1,0,1,0.000,0.000,0.000,0.000,0,0,52,3246,0,0,0,0,0.00,0.00,-0.124,-0.684,9.992,-0.732,0.427,0.427,28.71,7.74,0.00,2.2,0.0,1,1,1,1
2749531,1,0,1,0.000,0.000,0.000,0.000,0,0,52,3246,0,0,0,0,0.00,0.00,-0.119,-0.682,9.989,-0.793,0.427,0.427,28.70,7.75,0.00,2.8,0.0,1,1,1,1
2759539,1,0,1,0.000,0.000,0.000,0.000,0,0,52,3246,0,0,0,0,0.00,0.00,-0.114,-0.683,10.008,-0.793,0.427,0.427,28.71,7.75,0.00,2.2,0.0,1,1,1,1
2769540,1,0,1,0.000,0.000,0.000,0.000,0,0,52,3246,0,0,0,0,0.00,0.00,-0.122,-0.664,10.008,-0.671,0.549,0.427,28.70,7.75,0.00,2.5,0.0,1,1,1,1
2779546,1,0,1,0.000,0.000,0.000,0.000,0,0,52,3246,0,0,0,0,0.00,0.00,-0.126,-0.670,9.987,-0.793,0.427,0.427,28.70,7.74,0.00,2.2,0.0,1,1,1,1
2789546,1,0,1,0.000,0.000,0.000,0.000,0,0,52,3246,0,0,0,0,0.00,0.00,-0.130,-0.655,9.970,-0.854,0.427,0.427,28.67,7.76,0.00,2.8,0.0,1,1,1,1
2799546,1,0,1,0.000,0.000,0.000,0.000,0,0,52,3246,0,0,0,0,0.00,0.00,-0.122,-0.660,9.961,-0.732,0.427,0.488,28.68,7.77,0.00,2.5,0.0,1,1,1,1
2809546,1,0,1,0.000,0.000,0.000,0.000,0,0,52,3246,0,0,0,0,0.00,0.00,-0.117,-0.660,9.978,-0.732,0.488,0.427,28.66,7.75,0.00,2.2,0.0,1,1,1,1
2819546,1,0,1,0.000,0.000,0.000,0.000,0,0,52,3246,0,0,0,0,0.00,0.00,-0.113,-0.661,9.978,-0.671,0.427,0.366,28.69,7.75,0.00,2.5,0.0,1,1,1,1
2829555,1,0,1,0.000,0.000,0.000,0.000,0,0,52,3246,0,0,0,0,0.00,0.00,-0.115,-0.678,9.986,-0.732,0.427,0.427,28.68,7.75,0.00,2.5,0.0,1,1,1,1
2839555,1,0,1,0.000,0.000,0.000,0.000,0,0,52,3246,0,0,0,0,0.00,0.00,-0.116,-0.658,10.005,-0.915,0.366,0.427,28.70,7.74,0.00,2.5,0.0,1,1,1,1
2849555,1,0,1,0.000,0.000,0.000,0.000,0,0,52,3246,0,0,0,0,0.00,0.00,-0.127,-0.666,9.987,-0.854,0.488,0.427,28.67,7.75,0.00,2.5,0.0,1,1,1,1
2859555,1,0,1,0.000,0.000,0.000,0.000,0,0,52,3246,0,0,0,0,0.00,0.00,-0.117,-0.651,9.969,-0.793,0.488,0.427,28.69,7.75,0.00,2.5,0.0,1,1,1,1
2869555,1,0,1,0.000,0.000,0.000,0.000,0,0,52,3246,0,0,0,0,0.00,0.00,-0.121,-0.664,9.998,-0.671,0.427,0.366,28.66,7.74,0.00,2.5,0.0,1,1,1,1
2879561,1,0,1,0.000,0.000,0.000,0.000,0,0,52,3246,0,0,0,0,0.00,0.00,-0.124,-0.671,10.013,-0.793,0.488,0.427,28.68,7.75,0.00,2.5,0.0,1,1,1,1
2889561,1,0,1,0.000,0.000,0.000,0.000,0,0,52,3246,0,0,0,0,0.00,0.00,-0.134,-0.679,10.003,-0.793,0.488,0.488,28.68,7.76,0.00,2.5,0.0,1,1,1,1
2899565,1,0,1,0.000,0.000,0.000,0.000,0,0,52,3246,0,0,0,0,0.00,0.00,-0.128,-0.687,10.000,-0.671,0.427,0.488,28.68,7.74,0.00,2.5,0.0,1,1,1,1
2909570,1,0,1,0.000,0.000,0.000,0.000,0,0,52,3246,0,0,0,0,0.00,0.00,-0.117,-0.666,9.989,-0.793,0.366,0.488,28.67,7.75,0.00,2.8,0.0,1,1,1,1
2919570,1,0,1,0.000,0.000,0.000,0.000,0,0,52,3246,0,0,0,0,0.00,0.00,-0.106,-0.679,10.017,-0.793,0.488,0.427,28.71,7.73,0.00,2.5,0.0,1,1,1,1
2929576,1,0,1,0.000,0.000,0.000,0.000,0,0,52,3246,0,0,0,0,0.00,0.00,-0.119,-0.667,10.001,-0.732,0.549,0.427,28.69,7.74,0.00,2.5,0.0,1,1,1,1
2939576,1,0,1,0.000,0.000,0.000,0.000,0,0,52,3246,0,0,0,0,0.00,0.00,-0.113,-0.664,10.008,-0.732,0.488,0.427,28.69,7.75,0.00,2.8,0.0,1,1,1,1
2949576,1,0,1,0.000,0.000,0.000,0.000,0,0,52,3246,0,0,0,0,0.00,0.00,-0.127,-0.670,10.002,-0.793,0.488,0.427,28.66,7.74,0.00,2.5,0.0,1,1,1,1
2959577,1,0,1,0.000,0.000,0.000,0.000,0,0,52,3246,0,0,0,0,0.00,0.00,-0.137,-0.681,9.998,-0.732,0.427,0.427,28.72,7.76,0.00,2.2,0.0,1,1,1,1
2969585,1,0,1,0.000,0.000,0.000,0.000,0,0,52,3246,0,0,0,0,0.00,0.00,-0.116,-0.673,10.005,-0.732,0.427,0.366,28.71,7.75,0.00,2.5,0.0,1,1,1,1
2979592,1,0,1,0.000,0.000,0.000,0.000,0,0,52,3246,0,0,0,0,0.00,0.00,-0.129,-0.685,10.011,-0.793,0.488,0.488,28.72,7.76,0.00,2.5,0.0,1,1,1,1
2989592,1,0,1,0.000,0.000,0.000,0.000,0,0,52,3246,0,0,0,0,0.00,0.00,-0.128,-0.667,10.004,-0.854,0.549,0.488,28.72,7.74,0.00,2.5,0.0,1,1,1,1
2999600,1,0,1,0.000,0.000,0.000,0.000,0,0,52,3246,0,0,0,0,0.00,0.00,-0.127,-0.673,10.001,-0.732,0.427,0.488,28.73,7.75,0.00,2.5,0.0,1,1,1,1
3009600,1,0,1,0.000,0.000,0.000,0.000,0,0,52,3246,0,0,0,0,0.00,0.00,-0.123,-0.674,9.989,-0.732,0.427,0.488,28.68,7.74,0.00,2.5,0.0,1,1,1,1
3019607,1,0,1,0.000,0.000,0.000,0.000,0,0,52,3246,0,0,0,0,0.00,0.00,-0.137,-0.681,9.987,-0.793,0.427,0.488,28.70,7.75,0.00,2.5,0.0,1,1,1,1
3029615,1,0,1,0.000,0.000,0.000,0.000,0,0,52,3246,0,0,0,0,0.00,0.00,-0.120,-0.693,9.981,-0.732,0.427,0.427,28.68,7.75,0.00,2.5,0.0,1,1,1,1
3039622,1,0,1,0.000,0.000,0.000,0.000,0,0,52,3246,0,0,0,0,0.00,0.00,-0.126,-0.682,10.001,-0.671,0.427,0.488,28.66,7.75,0.00,2.8,0.0,1,1,1,1
3049622,1,0,1,0.000,0.000,0.000,0.000,0,0,52,3246,0,0,0,0,0.00,0.00,-0.123,-0.670,10.012,-0.732,0.488,0.366,28.71,7.75,0.00,2.5,0.0,1,1,1,1
3059622,1,0,1,0.000,0.000,0.000,0.000,0,0,52,3246,0,0,0,0,0.00,0.00,-0.105,-0.667,10.001,-0.732,0.427,0.488,28.71,7.75,0.00,2.5,0.0,1,1,1,1
3069622,1,0,1,0.000,0.000,0.000,0.000,0,0,52,3246,0,0,0,0,0.00,0.00,-0.127,-0.660,9.981,-0.793,0.366,0.427,28.75,7.75,0.00,2.8,0.0,1,1,1,1
3079631,1,0,1,0.000,0.000,0.000,0.000,0,0,52,3246,0,0,0,0,0.00,0.00,-0.115,-0.663,10.005,-0.854,0.427,0.366,28.72,7.76,0.00,2.5,0.0,1,1,1,1
3089631,1,0,1,0.000,0.000,0.000,0.000,0,0,52,3246,0,0,0,0,0.00,0.00,-0.119,-0.676,9.999,-0.793,0.427,0.427,28.67,7.75,0.00,2.5,0.0,1,1,1,1
3099637,1,0,1,0.000,0.000,0.000,0.000,0,0,52,3246,0,0,0,0,0.00,0.00,-0.118,-0.673,9.965,-0.671,0.427,0.488,28.67,7.75,0.00,2.5,0.0,1,1,1,1
3109637,1,0,1,0.000,0.000,0.000,0.000,0,0,52,3246,0,0,0,0,0.00,0.00,-0.140,-0.673,9.990,-0.732,0.488,0.427,28.71,7.74,0.00,2.5,0.0,1,1,1,1
3119637,1,0,1,0.000,0.000,0.000,0.000,0,0,52,3246,0,0,0,0,0.00,0.00,-0.122,-0.672,9.989,-0.732,0.488,0.488,28.68,7.75,0.00,2.5,0.0,1,1,1,1
3129637,1,0,1,0.000,0.000,0.000,0.000,0,0,52,3246,0,0,0,0,0.00,0.00,-0.099,-0.667,9.994,-0.732,0.366,0.488,28.69,7.74,0.00,2.5,0.0,1,1,1,1
3139637,1,0,1,0.000,0.000,0.000,0.000,0,0,52,3246,0,0,0,0,0.00,0.00,-0.108,-0.648,10.003,-0.793,0.427,0.427,28.72,7.75,0.00,2.5,0.0,1,1,1,1
3149646,1,0,1,0.000,0.000,0.000,0.000,0,0,52,3246,0,0,0,0,0.00,0.00,-0.130,-0.669,10.005,-0.793,0.366,0.427,28.73,7.75,0.00,2.5,0.0,1,1,1,1
3159646,1,0,1,0.000,0.000,0.000,0.000,0,0,52,3246,0,0,0,0,0.00,0.00,-0.127,-0.681,10.010,-0.793,0.488,0.488,28.68,7.75,0.00,2.5,0.0,1,1,1,1
3169652,1,0,1,0.000,0.000,0.000,0.000,0,0,52,3246,0,0,0,0,0.00,0.00,-0.125,-0.669,10.004,-0.854,0.488,0.427,28.71,7.76,0.00,2.5,0.0,1,1,1,1
3179661,1,0,1,0.000,0.000,0.000,0.000,0,0,52,3246,0,0,0,0,0.00,0.00,-0.123,-0.681,9.984,-0.671,0.366,0.488,28.73,7.75,0.00,2.5,0.0,1,1,1,1
3189667,1,0,1,0.000,0.000,0.000,0.000,0,0,52,3246,0,0,0,0,0.00,0.00,-0.119,-0.682,9.971,-0.732,0.488,0.427,28.76,7.75,0.00,2.5,0.0,1,1,1,1
3199680,1,0,1,0.000,0.000,0.000,0.000,0,0,52,3246,0,0,0,0,0.00,0.00,-0.134,-0.684,9.981,-0.793,0.427,0.488,28.68,7.75,0.00,2.8,0.0,1,1,1,1
3209691,1,0,1,0.000,0.000,0.000,0.000,0,0,52,3246,0,0,0,0,0.00,0.00,-0.117,-0.685,9.975,-0.793,0.427,0.488,28.69,7.74,0.00,2.5,0.0,1,1,1,1
3219691,1,0,1,0.000,0.000,0.000,0.000,0,0,52,3246,0,0,0,0,0.00,0.00,-0.122,-0.700,9.977,-0.671,0.427,0.427,28.72,7.75,0.00,2.5,0.0,1,1,1,1
3229691,1,0,1,0.000,0.000,0.000,0.000,0,0,52,3246,0,0,0,0,0.00,0.00,-0.131,-0.693,9.995,-0.732,0.488,0.427,28.72,7.74,0.00,2.5,0.0,1,1,1,1
3239698,1,0,1,0.000,0.000,0.000,0.000,0,0,52,3246,0,0,0,0,0.00,0.00,-0.129,-0.679,9.992,-0.732,0.488,0.488,28.67,7.75,0.00,2.5,0.0,1,1,1,1
3249706,1,0,1,0.000,0.000,0.000,0.000,0,0,52,3246,0,0,0,0,0.00,0.00,-0.118,-0.657,9.988,-0.793,0.366,0.427,28.70,7.75,0.00,2.5,0.0,1,1,1,1
3259706,1,0,1,0.000,0.000,0.000,0.000,0,0,52,3246,0,0,0,0,0.00,0.00,-0.105,-0.678,9.980,-0.854,0.549,0.366,28.70,7.75,0.00,2.5,0.0,1,1,1,1
3269706,1,0,1,0.000,0.000,0.000,0.000,0,0,52,3246,0,0,0,0,0.00,0.00,-0.116,-0.672,9.996,-0.671,0.488,0.427,28.72,7.75,0.00,2.5,0.0,1,1,1,1
3279706,1,0,1,0.000,0.000,0.000,0.000,0,0,52,3246,0,0,0,0,0.00,0.00,-0.118,-0.677,10.002,-0.854,0.427,0.488,28.74,7.75,0.00,2.5,0.0,1,1,1,1
3289706,1,0,1,0.000,0.000,0.000,0.000,0,0,52,3246,0,0,0,0,0.00,0.00,-0.131,-0.663,10.011,-0.732,0.427,0.427,28.71,7.73,0.00,2.5,0.0,1,1,1,1
3299706,1,0,1,0.000,0.000,0.000,0.000,0,0,52,3246,0,0,0,0,0.00,0.00,-0.136,-0.658,10.001,-0.793,0.488,0.427,28.65,7.74,0.00,2.8,0.0,1,1,1,1
3309708,1,0,1,0.000,0.000,0.000,0.000,0,0,52,3246,0,0,0,0,0.00,0.00,-0.117,-0.666,9.995,-0.793,0.610,0.427,28.71,7.75,0.00,2.5,0.0,1,1,1,1
3319722,1,0,1,0.000,0.000,0.000,0.000,0,0,52,3246,0,0,0,0,0.00,0.00,-0.144,-0.677,9.992,-0.732,0.427,0.427,28.67,7.74,0.00,2.8,0.0,1,1,1,1
3329722,1,0,1,0.000,0.000,0.000,0.000,0,0,52,3246,0,0,0,0,0.00,0.00,-0.129,-0.678,9.980,-0.732,0.488,0.427,28.75,7.75,0.00,2.8,0.0,1,1,1,1
3339728,1,0,1,0.000,0.000,0.000,0.000,0,0,52,3246,0,0,0,0,0.00,0.00,-0.118,-0.669,9.985,-0.732,0.549,0.427,28.73,7.74,0.00,2.5,0.0,1,1,1,1
3349737,1,0,1,0.000,0.000,0.000,0.000,0,0,52,3246,0,0,0,0,0.00,0.00,-0.119,-0.669,9.975,-0.732,0.549,0.366,28.65,7.74,0.00,2.5,0.0,1,1,1,1
3359737,1,0,1,0.000,0.000,0.000,0.000,0,0,52,3246,0,0,0,0,0.00,0.00,-0.122,-0.679,9.998,-0.854,0.549,0.366,28.72,7.74,0.00,2.5,0.0,1,1,1,1
3369743,1,0,1,0.000,0.000,0.000,0.000,0,0,52,3246,0,0,0,0,0.00,0.00,-0.128,-0.676,9.974,-0.671,0.549,0.427,28.72,7.74,0.00,2.5,0.0,1,1,1,1
3379752,1,0,1,0.000,0.000,0.000,0.000,0,0,52,3246,0,0,0,0,0.00,0.00,-0.111,-0.680,9.972,-0.732,0.427,0.488,28.70,7.75,0.00,2.5,0.0,1,1,1,1
3389759,1,0,1,0.000,0.000,0.000,0.000,0,0,52,3246,0,0,0,0,0.00,0.00,-0.102,-0.682,9.969,-0.732,0.427,0.488,28.73,7.75,0.00,2.5,0.0,1,1,1,1
3399767,1,0,1,0.000,0.000,0.000,0.000,0,0,52,3246,0,0,0,0,0.00,0.00,-0.133,-0.684,10.011,-0.793,0.427,0.366,28.73,7.74,0.00,2.5,0.0,1,1,1,1
3409774,1,0,1,0.000,0.000,0.000,0.000,0,0,52,3246,0,0,0,0,0.00,0.00,-0.131,-0.663,9.992,-0.732,0.427,0.366,28.68,7.74,0.00,2.5,0.0,1,1,1,1
3419783,1,0,1,0.000,0.000,0.000,0.000,0,0,52,3246,0,0,0,0,0.00,0.00,-0.126,-0.672,9.993,-0.793,0.427,0.427,28.71,7.75,0.00,2.5,0.0,1,1,1,1
3429791,1,0,1,0.000,0.000,0.000,0.000,0,0,52,3246,0,0,0,0,0.00,0.00,-0.120,-0.672,9.995,-0.854,0.488,0.366,28.70,7.77,0.00,2.5,0.0,1,1,1,1
3439798,1,0,1,0.000,0.000,0.000,0.000,0,0,52,3246,0,0,0,0,0.00,0.00,-0.116,-0.685,9.980,-0.854,0.427,0.366,28.68,7.75,0.00,2.5,0.0,1,1,1,1
3449806,1,0,1,0.000,0.000,0.000,0.000,0,0,52,3246,0,0,0,0,0.00,0.00,-0.132,-0.680,10.025,-0.732,0.488,0.427,28.67,7.75,0.00,2.5,0.0,1,1,1,1
3459807,1,0,1,0.000,0.000,0.000,0.000,0,0,52,3246,0,0,0,0,0.00,0.00,-0.122,-0.664,9.987,-0.671,0.427,0.488,28.70,7.75,0.00,2.5,0.0,1,1,1,1
3469813,1,0,1,0.000,0.000,0.000,0.000,0,0,52,3246,0,0,0,0,0.00,0.00,-0.122,-0.673,9.994,-0.793,0.427,0.488,28.71,7.73,0.00,2.8,0.0,1,1,1,1
3479813,1,0,1,0.000,0.000,0.000,0.000,0,0,52,3246,0,0,0,0,0.00,0.00,-0.125,-0.658,9.995,-0.732,0.427,0.488,28.71,7.74,0.00,2.8,0.0,1,1,1,1
3489813,1,0,1,0.000,0.000,0.000,0.000,0,0,52,3246,0,0,0,0,0.00,0.00,-0.144,-0.663,9.984,-0.793,0.366,0.427,28.69,7.74,0.00,2.5,0.0,1,1,1,1
3499813,1,0,1,0.000,0.000,0.000,0.000,0,0,52,3246,0,0,0,0,0.00,0.00,-0.123,-0.681,10.003,-0.793,0.488,0.427,28.74,7.74,0.00,2.8,0.0,1,1,1,1
3509822,1,0,1,0.000,0.000,0.000,0.000,0,0,52,3246,0,0,0,0,0.00,0.00,-0.132,-0.675,9.999,-0.854,0.488,0.366,28.68,7.75,0.00,2.8,0.0,1,1,1,1
3519828,1,0,1,0.000,0.000,0.000,0.000,0,0,52,3246,0,0,0,0,0.00,0.00,-0.131,-0.678,9.994,-0.793,0.427,0.427,28.71,7.76,0.00,2.5,0.0,1,1,1,1
3529828,1,0,1,0.000,0.000,0.000,0.000,0,0,52,3246,0,0,0,0,0.00,0.00,-0.114,-0.664,9.997,-0.732,0.549,0.427,28.71,7.74,0.00,2.5,0.0,1,1,1,1
3539837,1,0,1,0.000,0.000,0.000,0.000,0,0,52,3246,0,0,0,0,0.00,0.00,-0.130,-0.678,9.987,-0.671,0.488,0.427,28.69,7.75,0.00,2.5,0.0,1,1,1,1
3549837,1,0,1,0.000,0.000,0.000,0.000,0,0,52,3246,0,0,0,0,0.00,0.00,-0.115,-0.676,9.972,-0.732,0.427,0.366,28.72,7.77,0.00,2.8,0.0,1,1,1,1
3559837,1,0,1,0.000,0.000,0.000,0.000,0,0,52,3246,0,0,0,0,0.00,0.00,-0.114,-0.679,10.006,-0.732,0.488,0.488,28.73,7.75,0.00,2.5,0.0,1,1,1,1
3569837,1,0,1,0.000,0.000,0.000,0.000,0,0,52,3246,0,0,0,0,0.00,0.00,-0.126,-0.654,9.995,-0.732,0.427,0.488,28.73,7.75,0.00,2.2,0.0,1,1,1,1
3579844,1,0,1,0.000,0.000,0.000,0.000,0,0,52,3246,0,0,0,0,0.00,0.00,-0.131,-0.648,9.968,-0.671,0.427,0.427,28.69,7.74,0.00,2.5,0.0,1,1,1,1
3589852,1,0,1,0.000,0.000,0.000,0.000,0,0,52,3246,0,0,0,0,0.00,0.00,-0.137,-0.662,9.999,-0.732,0.427,0.366,28.69,7.73,0.00,2.5,0.0,1,1,1,1
3599852,1,0,1,0.000,0.000,0.000,0.000,0,0,52,3246,0,0,0,0,0.00,0.00,-0.125,-0.664,10.000,-0.793,0.427,0.366,28.71,7.74,0.00,2.5,0.0,1,1,1,1
3609865,1,0,1,0.000,0.000,0.000,0.000,0,0,52,3246,0,0,0,0,0.00,0.00,-0.115,-0.672,9.973,-0.793,0.366,0.427,28.71,7.73,0.00,2.5,0.0,1,1,1,1
3619874,1,0,1,0.000,0.000,0.000,0.000,0,0,52,3246,0,0,0,0,0.00,0.00,-0.125,-0.669,9.981,-0.793,0.427,0.427,28.67,7.75,0.00,2.5,0.0,1,1,1,1
3629882,1,0,1,0.000,0.000,0.000,0.000,0,0,52,3246,0,0,0,0,0.00,0.00,-0.107,-0.666,9.981,-0.854,0.427,0.427,28.74,7.75,0.00,2.5,0.0,1,1,1,1
3639882,1,0,1,0.000,0.000,0.000,0.000,0,0,52,3246,0,0,0,0,0.00,0.00,-0.110,-0.682,9.977,-0.793,0.488,0.427,28.73,7.75,0.00,2.5,0.0,1,1,1,1
3649889,1,0,1,0.000,0.000,0.000,0.000,0,0,52,3246,0,0,0,0,0.00,0.00,-0.119,-0.666,9.983,-0.732,0.427,0.488,28.67,7.74,0.00,2.8,0.0,1,1,1,1
3659889,1,0,1,0.000,0.000,0.000,0.000,0,0,52,3246,0,0,0,0,0.00,0.00,-0.125,-0.666,9.983,-0.732,0.427,0.488,28.69,7.74,0.00,2.5,0.0,1,1,1,1
3669889,1,0,1,0.000,0.000,0.000,0.000,0,0,52,3246,0,0,0,0,0.00,0.00,-0.111,-0.682,9.993,-0.793,0.427,0.427,28.68,7.75,0.00,2.5,0.0,1,1,1,1
3679898,1,0,1,0.000,0.000,0.000,0.000,0,0,52,3246,0,0,0,0,0.00,0.00,-0.120,-0.658,10.010,-0.793,0.488,0.366,28.71,7.74,0.00,2.5,0.0,1,1,1,1
3689904,1,0,1,0.000,0.000,0.000,0.000,0,0,52,3246,0,0,0,0,0.00,0.00,-0.140,-0.661,9.990,-0.793,0.427,0.427,28.69,7.74,0.00,2.5,0.0,1,1,1,1
3699913,1,0,1,0.000,0.000,0.000,0.000,0,0,52,3246,0,0,0,0,0.00,0.00,-0.121,-0.676,10.006,-0.732,0.488,0.427,28.70,7.75,0.00,2.5,0.0,1,1,1,1
3709913,1,0,1,0.000,0.000,0.000,0.000,0,0,52,3246,0,0,0,0,0.00,0.00,-0.128,-0.668,10.013,-0.793,0.488,0.427,28.72,7.75,0.00,2.5,0.0,1,1,1,1
3719913,1,0,1,0.000,0.000,0.000,0.000,0,0,52,3246,0,0,0,0,0.00,0.00,-0.125,-0.686,10.002,-0.732,0.488,0.488,28.69,7.71,0.00,2.5,0.0,1,1,1,1
3729913,1,0,1,0.000,0.000,0.000,0.000,0,0,52,3246,0,0,0,0,0.00,0.00,-0.116,-0.663,9.989,-0.671,0.488,0.427,28.71,7.75,0.00,2.5,0.0,1,1,1,1
3739919,1,0,1,0.000,0.000,0.000,0.000,0,0,52,3246,0,0,0,0,0.00,0.00,-0.117,-0.656,9.993,-0.732,0.488,0.427,28.71,7.74,0.00,2.5,0.0,1,1,1,1
3749919,1,0,1,0.000,0.000,0.000,0.000,0,0,52,3246,0,0,0,0,0.00,0.00,-0.130,-0.659,9.999,-0.671,0.427,0.488,28.68,7.75,0.00,2.5,0.0,1,1,1,1
3759928,1,0,1,0.000,0.000,0.000,0.000,0,0,52,3246,0,0,0,0,0.00,0.00,-0.133,-0.669,9.995,-0.793,0.427,0.427,28.68,7.75,0.00,2.8,0.0,1,1,1,1
3769928,1,0,1,0.000,0.000,0.000,0.000,0,0,52,3246,0,0,0,0,0.00,0.00,-0.124,-0.661,10.019,-0.854,0.488,0.427,28.67,7.74,0.00,2.5,0.0,1,1,1,1
3779928,1,0,1,0.000,0.000,0.000,0.000,0,0,52,3246,0,0,0,0,0.00,0.00,-0.116,-0.673,9.998,-0.793,0.488,0.366,28.71,7.74,0.00,2.5,0.0,1,1,1,1
3789935,1,0,1,0.000,0.000,0.000,0.000,0,0,52,3246,0,0,0,0,0.00,0.00,-0.132,-0.687,10.008,-0.793,0.427,0.366,28.67,7.74,0.00,2.5,0.0,1,1,1,1
3799943,1,0,1,0.000,0.000,0.000,0.000,0,0,52,3246,0,0,0,0,0.00,0.00,-0.126,-0.671,9.992,-0.793,0.427,0.427,28.72,7.75,0.00,2.5,0.0,1,1,1,1
3809943,1,0,1,0.000,0.000,0.000,0.000,1,1,52,3246,0,0,0,0,0.00,0.00,-0.115,-0.661,10.005,-0.793,0.427,0.427,28.66,7.74,0.00,2.5,0.0,1,1,1,1
3819950,1,0,1,0.000,0.000,0.000,0.000,1,1,52,3246,0,0,0,0,0.00,0.00,-0.119,-0.683,10.030,-0.793,0.427,0.488,28.69,7.76,0.00,2.5,0.0,1,1,1,1
3829950,1,0,1,0.000,0.000,0.000,0.000,1,1,52,3246,0,0,0,0,0.00,0.00,-0.125,-0.679,9.995,-0.732,0.427,0.488,28.70,7.75,0.00,2.5,0.0,1,1,1,1
3839958,1,0,1,0.000,0.000,0.000,0.000,1,1,52,3246,0,0,0,0,0.00,0.00,-0.118,-0.670,9.994,-0.732,0.427,0.366,28.73,7.75,0.00,2.2,0.0,1,1,1,1
3849958,1,0,1,0.000,0.000,0.000,0.000,1,1,52,3246,0,0,0,0,0.00,0.00,-0.134,-0.660,10.013,-0.793,0.488,0.427,28.72,7.74,0.00,2.5,0.0,1,1,1,1
3859965,1,0,1,0.000,0.000,0.000,0.000,1,1,52,3246,0,0,0,0,0.00,0.00,-0.134,-0.674,9.999,-0.732,0.427,0.427,28.72,7.76,0.00,2.2,0.0,1,1,1,1
3869965,1,0,1,0.000,0.000,0.000,0.000,1,1,52,3246,0,0,0,0,0.00,0.00,-0.133,-0.672,9.990,-0.671,0.427,0.488,28.68,7.75,0.00,2.5,0.0,1,1,1,1
3879973,1,0,1,0.000,0.000,0.000,0.000,1,1,52,3246,0,0,0,0,0.00,0.00,-0.123,-0.683,9.982,-0.854,0.488,0.549,28.68,7.74,0.00,2.5,0.0,1,1,1,1
3889973,1,0,1,0.000,0.000,0.000,0.000,1,1,52,3246,0,0,0,0,0.00,0.00,-0.113,-0.676,10.005,-0.793,0.427,0.427,28.69,7.75,0.00,2.5,0.0,1,1,1,1
3899986,1,0,1,0.000,0.000,0.000,0.000,1,1,52,3246,0,0,0,0,0.00,0.00,-0.127,-0.673,9.989,-0.793,0.427,0.488,28.66,7.74,0.00,2.5,0.0,1,1,1,1
3909989,1,0,1,0.000,0.000,0.000,0.000,1,1,52,3246,0,0,0,0,0.00,0.00,-0.119,-0.690,9.997,-0.915,0.488,0.427,28.66,7.74,0.00,2.5,0.0,1,1,1,1
3919989,1,0,1,0.000,0.000,0.000,0.000,1,1,52,3246,0,0,0,0,0.00,0.00,-0.132,-0.661,10.004,-0.915,0.427,0.488,28.69,7.74,0.00,2.5,0.0,1,1,1,1
3929989,1,0,1,0.000,0.000,0.000,0.000,1,1,52,3246,0,0,0,0,0.00,0.00,-0.117,-0.678,9.972,-0.671,0.488,0.488,28.70,7.73,0.00,2.5,0.0,1,1,1,1
3939989,1,0,1,0.000,0.000,0.000,0.000,1,1,52,3246,0,0,0,0,0.00,0.00,-0.121,-0.682,9.977,-0.793,0.488,0.366,28.72,7.75,0.00,2.2,0.0,1,1,1,1
3949989,1,0,1,0.000,0.000,0.000,0.000,1,1,52,3246,0,0,0,0,0.00,0.00,-0.123,-0.676,9.999,-0.854,0.488,0.427,28.66,7.75,0.00,2.2,0.0,1,1,1,1
3959989,1,0,1,0.000,0.000,0.000,0.000,1,1,52,3246,0,0,0,0,0.00,0.00,-0.124,-0.670,9.999,-0.793,0.488,0.488,28.68,7.75,0.00,2.5,0.0,1,1,1,1
3969989,1,0,1,0.000,0.000,0.000,0.000,1,1,52,3246,0,0,0,0,0.00,0.00,-0.126,-0.675,10.000,-0.793,0.488,0.427,28.68,7.76,0.00,2.5,0.0,1,1,1,1
3979995,1,0,1,0.000,0.000,0.000,0.000,1,1,52,3246,0,0,0,0,0.00,0.00,-0.141,-0.671,9.996,-0.854,0.427,0.366,28.71,7.75,0.00,2.5,0.0,1,1,1,1
3989995,1,0,1,0.000,0.000,0.000,0.000,1,1,52,3246,0,0,0,0,0.00,0.00,-0.117,-0.657,9.999,-0.854,0.366,0.488,28.66,7.76,0.00,2.5,0.0,1,1,1,1
3999995,1,0,1,0.000,0.000,0.000,0.000,1,1,52,3246,0,0,0,0,0.00,0.00,-0.109,-0.658,9.988,-0.793,0.427,0.427,28.74,7.75,0.00,2.8,0.0,1,1,1,1
4009995,1,0,1,0.000,0.000,0.000,0.000,1,1,52,3246,0,0,0,0,0.00,0.00,-0.123,-0.676,9.972,-0.793,0.427,0.488,28.69,7.74,0.00,2.5,0.0,1,1,1,1
4020004,1,0,1,0.000,0.000,0.000,0.000,1,1,52,3246,0,0,0,0,0.00,0.00,-0.117,-0.666,9.992,-0.854,0.488,0.488,28.70,7.75,0.00,2.5,0.0,1,1,1,1
4030004,1,0,1,0.000,0.000,0.000,0.000,1,1,52,3246,0,0,0,0,0.00,0.00,-0.099,-0.646,9.997,-0.854,0.427,0.488,28.71,7.75,0.00,2.5,0.0,1,1,1,1
4040010,1,0,1,0.000,0.000,0.000,0.000,1,1,52,3246,0,0,0,0,0.00,0.00,-0.133,-0.657,10.003,-0.854,0.366,0.366,28.68,7.75,0.00,2.5,0.0,1,1,1,1
4050010,1,0,1,0.000,0.000,0.000,0.000,1,1,52,3246,0,0,0,0,0.00,0.00,-0.129,-0.665,10.001,-0.793,0.488,0.427,28.73,7.74,0.00,2.5,0.0,1,1,1,1
4060019,1,0,1,0.000,0.000,0.000,0.000,1,1,52,3246,0,0,0,0,0.00,0.00,-0.113,-0.667,9.999,-0.793,0.427,0.427,28.71,7.76,0.00,2.5,0.0,1,1,1,1
4070019,1,0,1,0.000,0.000,0.000,0.000,1,1,52,3246,0,0,0,0,0.00,0.00,-0.135,-0.694,9.990,-0.793,0.427,0.488,28.67,7.74,0.00,2.5,0.0,1,1,1,1
4080026,1,0,1,0.000,0.000,0.000,0.000,1,1,52,3246,0,0,0,0,0.00,0.00,-0.132,-0.670,9.986,-0.732,0.305,0.427,28.67,7.73,0.00,2.5,0.0,1,1,1,1
4090026,1,0,1,0.000,0.000,0.000,0.000,1,1,52,3246,0,0,0,0,0.00,0.00,-0.121,-0.667,9.974,-0.732,0.366,0.427,28.69,7.74,0.00,2.2,0.0,1,1,1,1
4100026,1,0,1,0.000,0.000,0.000,0.000,1,1,52,3246,0,0,0,0,0.00,0.00,-0.122,-0.671,9.990,-0.854,0.488,0.366,28.71,7.75,0.00,2.5,0.0,1,1,1,1
4110026,1,0,1,0.000,0.000,0.000,0.000,1,1,52,3246,0,0,0,0,0.00,0.00,-0.129,-0.663,10.027,-0.793,0.427,0.427,28.68,7.74,0.00,2.5,0.0,1,1,1,1
4120026,1,0,1,0.000,0.000,0.000,0.000,1,1,52,3246,0,0,0,0,0.00,0.00,-0.143,-0.657,10.004,-0.732,0.427,0.427,28.74,7.76,0.00,2.5,0.0,1,1,1,1
4130026,1,0,1,0.000,0.000,0.000,0.000,1,1,52,3246,0,0,0,0,0.00,0.00,-0.141,-0.679,9.979,-0.793,0.366,0.427,28.73,7.75,0.00,2.5,0.0,1,1,1,1
4140026,1,0,1,0.000,0.000,0.000,0.000,1,1,52,3246,0,0,0,0,0.00,0.00,-0.093,-0.702,9.995,-0.732,0.549,0.488,28.69,7.75,0.00,2.5,0.0,1,1,1,1
4150034,1,0,1,0.000,0.000,0.000,0.000,1,1,52,3246,0,0,0,0,0.00,0.00,-0.104,-0.657,10.002,-0.732,0.488,0.427,28.71,7.74,0.00,2.5,0.0,1,1,1,1
4160041,1,0,1,0.000,0.000,0.000,0.000,1,1,52,3246,0,0,0,0,0.00,0.00,-0.129,-0.673,9.998,-0.793,0.366,0.488,28.71,7.75,0.00,2.5,0.0,1,1,1,1
4170041,1,0,1,0.000,0.000,0.000,0.000,1,1,52,3246,0,0,0,0,0.00,0.00,-0.108,-0.686,9.997,-0.732,0.427,0.427,28.68,7.77,0.00,2.2,0.0,1,1,1,1
4180041,1,0,1,0.000,0.000,0.000,0.000,1,1,52,3246,0,0,0,0,0.00,0.00,-0.112,-0.663,9.982,-0.732,0.488,0.427,28.74,7.75,0.00,2.2,0.0,1,1,1,1
4190041,1,0,1,0.000,0.000,0.000,0.000,1,1,52,3246,0,0,0,0,0.00,0.00,-0.130,-0.670,9.998,-0.854,0.427,0.366,28.71,7.75,0.00,2.5,0.0,1,1,1,1
4200041,1,0,1,0.000,0.000,0.000,0.000,1,1,52,3246,0,0,0,0,0.00,0.00,-0.124,-0.682,9.990,-0.793,0.488,0.488,28.71,7.75,0.00,2.8,0.0,1,1,1,1
4210049,1,0,1,0.000,0.000,0.000,0.000,1,1,52,3246,0,0,0,0,0.00,0.00,-0.119,-0.670,9.983,-0.671,0.488,0.427,28.69,7.74,0.00,2.2,0.0,1,1,1,1
4220049,1,0,1,0.000,0.000,0.000,0.000,1,1,52,3246,0,0,0,0,0.00,0.00,-0.131,-0.685,10.007,-0.793,0.427,0.305,28.69,7.75,0.00,2.5,0.0,1,1,1,1
4230056,1,0,1,0.000,0.000,0.000,0.000,1,1,52,3246,0,0,0,0,0.00,0.00,-0.126,-0.680,10.011,-0.671,0.427,0.549,28.71,7.76,0.00,2.2,0.0,1,1,1,1
4240056,1,0,1,0.000,0.000,0.000,0.000,1,1,52,3246,0,0,0,0,0.00,0.00,-0.123,-0.673,9.993,-0.732,0.488,0.488,28.71,7.75,0.00,2.5,0.0,1,1,1,1
4250056,1,0,1,0.000,0.000,0.000,0.000,1,1,52,3246,0,0,0,0,0.00,0.00,-0.144,-0.669,10.022,-0.854,0.488,0.366,28.71,7.74,0.00,2.5,0.0,1,1,1,1
4260065,1,0,1,0.000,0.000,0.000,0.000,1,1,52,3246,0,0,0,0,0.00,0.00,-0.127,-0.676,10.011,-0.732,0.427,0.488,28.75,7.73,0.00,2.5,0.0,1,1,1,1
4270080,1,0,1,0.000,0.000,0.000,0.000,1,1,52,3246,0,0,0,0,0.00,0.00,-0.130,-0.672,9.993,-0.793,0.427,0.488,28.75,7.74,0.00,2.5,0.0,1,1,1,1
4280086,1,0,1,0.000,0.000,0.000,0.000,1,1,52,3246,0,0,0,0,0.00,0.00,-0.136,-0.669,9.987,-0.793,0.488,0.366,28.68,7.75,0.00,2.5,0.0,1,1,1,1
4290095,1,0,1,0.000,0.000,0.000,0.000,1,1,52,3246,0,0,0,0,0.00,0.00,-0.131,-0.670,9.986,-0.854,0.488,0.366,28.68,7.76,0.00,2.5,0.0,1,1,1,1
4300101,1,0,1,0.000,0.000,0.000,0.000,1,1,52,3246,0,0,0,0,0.00,0.00,-0.139,-0.670,9.981,-0.793,0.488,0.488,28.70,7.73,0.00,2.5,0.0,1,1,1,1
4310101,1,0,1,0.000,0.000,0.000,0.000,1,1,52,3246,0,0,0,0,0.00,0.00,-0.136,-0.658,9.995,-0.732,0.427,0.427,28.73,7.68,0.00,2.5,0.0,1,1,1,1
4320101,1,0,1,0.000,0.000,0.000,0.000,1,1,52,3246,0,0,0,0,0.00,0.00,-0.124,-0.649,9.999,-0.732,0.427,0.488,28.68,7.76,0.00,2.5,0.0,1,1,1,1
4330102,1,0,1,0.000,0.000,0.000,0.000,1,1,52,3246,0,0,0,0,0.00,0.00,-0.115,-0.663,9.996,-0.671,0.427,0.427,28.73,7.76,0.00,2.5,0.0,1,1,1,1
4340102,1,0,1,0.000,0.000,0.000,0.000,1,1,52,3246,0,0,0,0,0.00,0.00,-0.133,-0.663,9.990,-0.671,0.427,0.427,28.71,7.75,0.00,2.2,0.0,1,1,1,1
4350110,1,0,1,0.000,0.000,0.000,0.000,1,1,52,3246,0,0,0,0,0.00,0.00,-0.147,-0.668,9.978,-0.671,0.488,0.427,28.71,7.74,0.00,2.8,0.0,1,1,1,1
4360110,1,0,1,0.000,0.000,0.000,0.000,1,1,52,3246,0,0,0,0,0.00,0.00,-0.115,-0.675,9.974,-0.732,0.427,0.488,28.65,7.74,0.00,2.5,0.0,1,1,1,1
4370117,1,0,1,0.000,0.000,0.000,0.000,1,1,52,3246,0,0,0,0,0.00,0.00,-0.099,-0.666,10.007,-0.854,0.488,0.427,28.71,7.76,0.00,2.5,0.0,1,1,1,1
4380125,1,0,1,0.000,0.000,0.000,0.000,1,1,52,3246,0,0,0,0,0.00,0.00,-0.122,-0.657,10.020,-0.793,0.366,0.427,28.69,7.75,0.00,2.5,0.0,1,1,1,1
4390132,1,0,1,0.000,0.000,0.000,0.000,1,1,52,3246,0,0,0,0,0.00,0.00,-0.114,-0.670,9.987,-0.732,0.427,0.427,28.70,7.79,0.00,2.8,0.0,1,1,1,1
4400132,1,0,1,0.000,0.000,0.000,0.000,1,1,52,3246,0,0,0,0,0.00,0.00,-0.122,-0.676,9.993,-0.793,0.488,0.427,28.68,7.75,0.00,2.5,0.0,1,1,1,1
4410132,1,0,1,0.000,0.000,0.000,0.000,1,1,52,3246,0,0,0,0,0.00,0.00,-0.130,-0.669,10.026,-0.793,0.488,0.488,28.68,7.75,0.00,2.5,0.0,1,1,1,1
4420132,1,0,1,0.000,0.000,0.000,0.000,1,1,52,3246,0,0,0,0,0.00,0.00,-0.127,-0.671,10.002,-0.793,0.427,0.427,28.72,7.75,0.00,2.5,0.0,1,1,1,1
4430140,1,0,1,0.000,0.000,0.000,0.000,1,1,52,3246,0,0,0,0,0.00,0.00,-0.102,-0.667,9.984,-0.854,0.488,0.366,28.70,7.74,0.00,2.5,0.0,1,1,1,1
4440147,1,0,1,0.000,0.000,0.000,0.000,1,1,52,3246,0,0,0,0,0.00,0.00,-0.126,-0.642,9.983,-0.793,0.549,0.366,28.69,7.75,0.00,2.5,0.0,1,1,1,1
4450155,1,0,1,0.000,0.000,0.000,0.000,1,1,52,3246,0,0,0,0,0.00,0.00,-0.111,-0.667,10.002,-0.854,0.488,0.488,28.66,7.74,0.00,2.5,0.0,1,1,1,1
4460156,1,0,1,0.000,0.000,0.000,0.000,1,1,52,3246,0,0,0,0,0.00,0.00,-0.125,-0.664,10.019,-0.793,0.427,0.488,28.73,7.76,0.00,2.5,0.0,1,1,1,1
4470162,1,0,1,0.000,0.000,0.000,0.000,1,1,52,3246,0,0,0,0,0.00,0.00,-0.114,-0.672,9.991,-0.732,0.427,0.366,28.70,7.75,0.00,2.2,0.0,1,1,1,1
4480162,1,0,1,0.000,0.000,0.000,0.000,1,1,52,3246,0,0,0,0,0.00,0.00,-0.127,-0.675,10.006,-0.854,0.427,0.427,28.68,7.74,0.00,2.5,0.0,1,1,1,1
4490162,1,0,1,0.000,0.000,0.000,0.000,1,1,52,3246,0,0,0,0,0.00,0.00,-0.133,-0.671,9.999,-0.854,0.366,0.427,28.72,7.76,0.00,2.5,0.0,1,1,1,1
4500162,1,0,1,0.000,0.000,0.000,0.000,1,1,52,3246,0,0,0,0,0.00,0.00,-0.118,-0.659,9.998,-0.732,0.488,0.488,28.68,7.75,0.00,2.5,0.0,1,1,1,1
4510171,1,0,1,0.000,0.000,0.000,0.000,1,1,52,3246,0,0,0,0,0.00,0.00,-0.138,-0.675,9.989,-0.732,0.427,0.427,28.69,7.76,0.00,2.5,0.0,1,1,1,1
4520171,1,0,1,0.000,0.000,0.000,0.000,1,1,52,3246,0,0,0,0,0.00,0.00,-0.128,-0.669,9.984,-0.793,0.366,0.427,28.69,7.76,0.00,2.5,0.0,1,1,1,1
4530171,1,0,1,0.000,0.000,0.000,0.000,1,1,52,3246,0,0,0,0,0.00,0.00,-0.124,-0.672,10.020,-0.732,0.427,0.488,28.73,7.75,0.00,2.5,0.0,1,1,1,1
4540177,1,0,1,0.000,0.000,0.000,0.000,1,1,52,3246,0,0,0,0,0.00,0.00,-0.129,-0.662,9.997,-0.793,0.427,0.427,28.71,7.75,0.00,2.5,0.0,1,1,1,1
4550177,1,0,1,0.000,0.000,0.000,0.000,1,1,52,3246,0,0,0,0,0.00,0.00,-0.135,-0.669,9.984,-0.915,0.610,0.427,28.71,7.74,0.00,2.5,0.0,1,1,1,1
4560186,1,0,1,0.000,0.000,0.000,0.000,1,1,52,3246,0,0,0,0,0.00,0.00,-0.126,-0.674,10.000,-0.793,0.488,0.488,28.71,7.76,0.00,2.5,0.0,1,1,1,1
4570193,1,0,1,0.000,0.000,0.000,0.000,1,1,52,3246,0,0,0,0,0.00,0.00,-0.123,-0.657,9.980,-0.732,0.427,0.488,28.68,7.74,0.00,2.5,0.0,1,1,1,1
4580201,1,0,1,0.000,0.000,0.000,0.000,1,1,52,3246,0,0,0,0,0.00,0.00,-0.123,-0.655,9.997,-0.732,0.427,0.427,28.68,7.74,0.00,2.5,0.0,1,1,1,1
4590201,1,0,1,0.000,0.000,0.000,0.000,1,1,52,3246,0,0,0,0,0.00,0.00,-0.122,-0.655,9.984,-0.793,0.427,0.427,28.70,7.74,0.00,2.2,0.0,1,1,1,1
4600201,1,0,1,0.000,0.000,0.000,0.000,1,1,52,3246,0,0,0,0,0.00,0.00,-0.117,-0.666,9.987,-0.793,0.366,0.488,28.72,7.74,0.00,2.5,0.0,1,1,1,1
4610206,1,0,1,0.000,0.000,0.000,0.000,1,1,52,3246,0,0,0,0,0.00,0.00,-0.107,-0.675,9.999,-0.732,0.549,0.427,28.73,7.75,0.00,2.5,0.0,1,1,1,1
4620216,1,0,1,0.000,0.000,0.000,0.000,1,1,52,3246,0,0,0,0,0.00,0.00,-0.105,-0.686,9.992,-0.732,0.427,0.366,28.74,7.76,0.00,2.5,0.0,1,1,1,1
4630216,1,0,1,0.000,0.000,0.000,0.000,1,1,52,3246,0,0,0,0,0.00,0.00,-0.128,-0.651,9.992,-0.793,0.488,0.427,28.71,7.76,0.00,2.2,0.0,1,1,1,1
4640216,1,0,1,0.000,0.000,0.000,0.000,1,1,52,3246,0,0,0,0,0.00,0.00,-0.136,-0.662,10.008,-0.854,0.488,0.427,28.67,7.74,0.00,2.5,0.0,1,1,1,1
4650216,1,0,1,0.000,0.000,0.000,0.000,1,1,52,3246,0,0,0,0,0.00,0.00,-0.120,-0.673,9.995,-0.793,0.427,0.427,28.69,7.74,0.00,2.5,0.0,1,1,1,1
4660216,1,0,1,0.000,0.000,0.000,0.000,1,1,52,3246,0,0,0,0,0.00,0.00,-0.141,-0.642,9.984,-0.854,0.427,0.427,28.74,7.75,0.00,2.5,0.0,1,1,1,1
4670216,1,0,1,0.000,0.000,0.000,0.000,1,1,52,3246,0,0,0,0,0.00,0.00,-0.126,-0.651,9.995,-0.793,0.427,0.488,28.72,7.75,0.00,2.5,0.0,1,1,1,1
4680216,1,0,1,0.000,0.000,0.000,0.000,1,1,52,3246,0,0,0,0,0.00,0.00,-0.117,-0.668,9.981,-0.732,0.366,0.366,28.75,7.77,0.00,2.5,0.0,1,1,1,1
4690223,1,0,1,0.000,0.000,0.000,0.000,1,1,52,3246,0,0,0,0,0.00,0.00,-0.120,-0.662,9.999,-0.732,0.427,0.427,28.72,7.70,0.00,2.5,0.0,1,1,1,1
4700231,1,0,1,0.000,0.000,0.000,0.000,1,1,52,3246,0,0,0,0,0.00,0.00,-0.133,-0.670,9.970,-0.732,0.488,0.427,28.75,7.75,0.00,2.5,0.0,1,1,1,1
4710231,1,0,1,0.000,0.000,0.000,0.000,1,1,52,3246,0,0,0,0,0.00,0.00,-0.142,-0.667,9.986,-0.732,0.488,0.366,28.72,7.75,0.00,2.5,0.0,1,1,1,1
4720238,1,0,1,0.000,0.000,0.000,0.000,1,1,52,3246,0,0,0,0,0.00,0.00,-0.122,-0.662,9.983,-0.732,0.427,0.488,28.75,7.75,0.00,2.5,0.0,1,1,1,1
4730247,1,0,1,0.000,0.000,0.000,0.000,1,1,52,3246,0,0,0,0,0.00,0.00,-0.133,-0.645,10.008,-0.793,0.427,0.488,28.74,7.76,0.00,2.5,0.0,1,1,1,1
4740247,1,0,1,0.000,0.000,0.000,0.000,1,1,52,3246,0,0,0,0,0.00,0.00,-0.138,-0.658,10.008,-0.854,0.427,0.427,28.70,7.76,0.00,2.5,0.0,1,1,1,1
4750253,1,0,1,0.000,0.000,0.000,0.000,1,1,52,3246,0,0,0,0,0.00,0.00,-0.116,-0.658,9.982,-0.793,0.488,0.427,28.70,7.75,0.00,2.5,0.0,1,1,1,1
4760262,1,0,1,0.000,0.000,0.000,0.000,1,1,52,3246,0,0,0,0,0.00,0.00,-0.125,-0.667,9.989,-0.732,0.427,0.366,28.69,7.76,0.00,2.5,0.0,1,1,1,1
4770268,1,0,1,0.000,0.000,0.000,0.000,1,1,52,3246,0,0,0,0,0.00,0.00,-0.116,-0.662,9.997,-0.732,0.488,0.488,28.70,7.75,0.00,2.5,0.0,1,1,1,1
4780277,1,0,1,0.000,0.000,0.000,0.000,1,1,52,3246,0,0,0,0,0.00,0.00,-0.132,-0.674,9.993,-0.793,0.488,0.427,28.71,7.75,0.00,2.5,0.0,1,1,1,1
4790288,1,0,1,0.000,0.000,0.000,0.000,1,1,52,3246,0,0,0,0,0.00,0.00,-0.126,-0.676,9.996,-0.732,0.427,0.488,28.76,7.77,0.00,2.5,0.0,1,1,1,1
4800288,1,0,1,0.000,0.000,0.000,0.000,1,1,52,3246,0,0,0,0,0.00,0.00,-0.122,-0.656,10.004,-0.732,0.488,0.427,28.72,7.75,0.00,2.5,0.0,1,1,1,1
4810288,1,0,1,0.000,0.000,0.000,0.000,1,1,52,3246,0,0,0,0,0.00,0.00,-0.128,-0.664,9.985,-0.671,0.488,0.427,28.72,7.75,0.00,2.5,0.0,1,1,1,1
4820297,1,0,1,0.000,0.000,0.000,0.000,1,1,52,3246,0,0,0,0,0.00,0.00,-0.116,-0.661,9.987,-0.732,0.427,0.366,28.72,7.76,0.00,2.5,0.0,1,1,1,1
4830303,1,0,1,0.000,0.000,0.000,0.000,1,1,52,3246,0,0,0,0,0.00,0.00,-0.127,-0.661,9.999,-0.732,0.488,0.427,28.70,7.75,0.00,2.5,0.0,1,1,1,1
4840312,1,0,1,0.000,0.000,0.000,0.000,1,1,52,3246,0,0,0,0,0.00,0.00,-0.132,-0.663,9.979,-0.793,0.488,0.427,28.71,7.75,0.00,2.5,0.0,1,1,1,1
4850318,1,0,1,0.000,0.000,0.000,0.000,1,1,52,3246,0,0,0,0,0.00,0.00,-0.120,-0.665,9.994,-0.793,0.427,0.366,28.71,7.75,0.00,2.5,0.0,1,1,1,1
4860319,1,0,1,0.000,0.000,0.000,0.000,1,1,52,3246,0,0,0,0,0.00,0.00,-0.106,-0.671,9.978,-0.915,0.488,0.427,28.72,7.76,0.00,2.5,0.0,1,1,1,1
4870327,1,0,1,0.000,0.000,0.000,0.000,1,1,52,3246,0,0,0,0,0.00,0.00,-0.124,-0.661,10.000,-0.732,0.427,0.488,28.72,7.76,0.00,2.5,0.0,1,1,1,1
4880327,1,0,1,0.000,0.000,0.000,0.000,1,1,52,3246,0,0,0,0,0.00,0.00,-0.137,-0.684,10.018,-0.671,0.488,0.427,28.69,7.74,0.00,2.5,0.0,1,1,1,1
4890327,1,0,1,0.000,0.000,0.000,0.000,1,1,52,3246,0,0,0,0,0.00,0.00,-0.142,-0.661,10.004,-0.854,0.488,0.366,28.69,7.75,0.00,2.5,0.0,1,1,1,1
4900332,1,0,1,0.000,0.000,0.000,0.000,1,1,52,3246,0,0,0,0,0.00,0.00,-0.130,-0.673,10.001,-0.732,0.488,0.366,28.71,7.74,0.00,2.5,0.0,1,1,1,1
4910342,1,0,1,0.000,0.000,0.000,0.000,1,1,52,3246,0,0,0,0,0.00,0.00,-0.107,-0.673,9.985,-0.732,0.488,0.366,28.73,7.76,0.00,2.5,0.0,1,1,1,1
4920342,1,0,1,0.000,0.000,0.000,0.000,1,1,52,3246,0,0,0,0,0.00,0.00,-0.125,-0.651,10.011,-0.793,0.427,0.366,28.73,7.75,0.00,2.5,0.0,1,1,1,1
4930342,1,0,1,0.000,0.000,0.000,0.000,1,1,52,3246,0,0,0,0,0.00,0.00,-0.136,-0.666,10.003,-0.732,0.427,0.427,28.74,7.75,0.00,2.5,0.0,1,1,1,1
4940349,1,0,1,0.000,0.000,0.000,0.000,1,1,52,3246,0,0,0,0,0.00,0.00,-0.128,-0.672,9.973,-0.732,0.427,0.427,28.72,7.75,0.00,2.2,0.0,1,1,1,1
4950349,1,0,1,0.000,0.000,0.000,0.000,1,1,52,3246,0,0,0,0,0.00,0.00,-0.139,-0.653,9.998,-0.732,0.488,0.427,28.72,7.75,0.00,2.5,0.0,1,1,1,1
4960349,1,0,1,0.000,0.000,0.000,0.000,1,1,52,3246,0,0,0,0,0.00,0.00,-0.119,-0.669,9.987,-0.793,0.427,0.488,28.67,7.75,0.00,2.5,0.0,1,1,1,1
4970349,1,0,1,0.000,0.000,0.000,0.000,1,1,52,3246,0,0,0,0,0.00,0.00,-0.125,-0.654,9.986,-0.793,0.427,0.427,28.68,7.75,0.00,2.5,0.0,1,1,1,1
4980349,1,0,1,0.000,0.000,0.000,0.000,1,1,52,3246,0,0,0,0,0.00,0.00,-0.122,-0.668,9.984,-0.610,0.488,0.427,28.72,7.74,0.00,2.5,0.0,1,1,1,1
4990357,1,0,1,0.000,0.000,0.000,0.000,1,1,52,3246,0,0,0,0,0.00,0.00,-0.118,-0.665,9.975,-0.732,0.427,0.488,28.72,7.77,0.00,2.5,0.0,1,1,1,1
5000364,1,0,1,0.000,0.000,0.000,0.000,1,1,52,3246,0,0,0,0,0.00,0.00,-0.121,-0.657,9.989,-0.854,0.427,0.427,28.73,7.75,0.00,2.5,0.0,1,1,1,1
5010373,1,0,1,0.000,0.000,0.000,0.000,1,1,52,3246,0,0,0,0,0.00,0.00,-0.111,-0.658,9.993,-0.793,0.488,0.366,28.73,7.75,0.00,2.5,0.0,1,1,1,1
5020379,1,0,1,0.000,0.000,0.000,0.000,1,1,52,3246,0,0,0,0,0.00,0.00,-0.117,-0.664,9.995,-0.793,0.488,0.427,28.71,7.75,0.00,2.5,0.0,1,1,1,1
5030379,1,0,1,0.000,0.000,0.000,0.000,1,1,52,3246,0,0,0,0,0.00,0.00,-0.127,-0.672,9.999,-0.793,0.427,0.488,28.72,7.74,0.00,2.5,0.0,1,1,1,1
5040388,1,0,1,0.000,0.000,0.000,0.000,1,1,52,3246,0,0,0,0,0.00,0.00,-0.141,-0.658,10.002,-0.793,0.549,0.427,28.67,7.76,0.00,2.2,0.0,1,1,1,1
5050388,1,0,1,0.000,0.000,0.000,0.000,1,1,52,3246,0,0,0,0,0.00,0.00,-0.116,-0.684,9.969,-0.732,0.488,0.488,28.71,7.71,0.00,2.5,0.0,1,1,1,1
5060388,1,0,1,0.000,0.000,0.000,0.000,1,1,52,3246,0,0,0,0,0.00,0.00,-0.111,-0.670,9.993,-0.793,0.427,0.488,28.73,7.76,0.00,2.5,0.0,1,1,1,1
5070388,1,0,1,0.000,0.000,0.000,0.000,1,1,52,3246,0,0,0,0,0.00,0.00,-0.123,-0.667,9.983,-0.793,0.427,0.488,28.68,7.74,0.00,2.2,0.0,1,1,1,1
5080394,1,0,1,0.000,0.000,0.000,0.000,1,1,52,3246,0,0,0,0,0.00,0.00,-0.122,-0.664,9.999,-0.671,0.488,0.427,28.75,7.75,0.00,2.5,0.0,1,1,1,1
5090394,1,0,1,0.000,0.000,0.000,0.000,1,1,52,3246,0,0,0,0,0.00,0.00,-0.130,-0.665,9.979,-0.732,0.488,0.488,28.75,7.75,0.00,2.5,0.0,1,1,1,1
5100403,1,0,1,0.000,0.000,0.000,0.000,1,1,52,3246,0,0,0,0,0.00,0.00,-0.128,-0.660,9.987,-0.793,0.427,0.366,28.71,7.76,0.00,2.5,0.0,1,1,1,1
5110403,1,0,1,0.000,0.000,0.000,0.000,1,1,52,3246,0,0,0,0,0.00,0.00,-0.111,-0.659,9.994,-0.732,0.488,0.366,28.71,7.74,0.00,2.5,0.0,1,1,1,1
5120403,1,0,1,0.000,0.000,0.000,0.000,1,1,52,3246,0,0,0,0,0.00,0.00,-0.124,-0.666,9.996,-0.793,0.427,0.427,28.66,7.75,0.00,2.2,0.0,1,1,1,1
5130403,1,0,1,0.000,0.000,0.000,0.000,1,1,52,3246,0,0,0,0,0.00,0.00,-0.136,-0.684,9.992,-0.854,0.488,0.488,28.73,7.76,0.00,2.5,0.0,1,1,1,1
5140403,1,0,1,0.000,0.000,0.000,0.000,1,1,52,3246,0,0,0,0,0.00,0.00,-0.117,-0.684,9.990,-0.793,0.427,0.427,28.70,7.74,0.00,2.2,0.0,1,1,1,1
5150409,1,0,1,0.000,0.000,0.000,0.000,1,1,52,3246,0,0,0,0,0.00,0.00,-0.111,-0.672,9.992,-0.732,0.427,0.366,28.68,7.74,0.00,2.5,0.0,1,1,1,1
5160418,1,0,1,0.000,0.000,0.000,0.000,1,1,52,3246,0,0,0,0,0.00,0.00,-0.117,-0.670,10.013,-0.732,0.427,0.488,28.69,7.75,0.00,2.5,0.0,1,1,1,1
5170425,1,0,1,0.000,0.000,0.000,0.000,1,1,52,3246,0,0,0,0,0.00,0.00,-0.115,-0.677,9.996,-0.793,0.488,0.488,28.75,7.75,0.00,2.5,0.0,1,1,1,1
5180425,1,0,1,0.000,0.000,0.000,0.000,1,1,52,3246,0,0,0,0,0.00,0.00,-0.105,-0.674,9.985,-0.793,0.488,0.488,28.67,7.75,0.00,2.2,0.0,1,1,1,1
5190433,1,0,1,0.000,0.000,0.000,0.000,1,1,52,3246,0,0,0,0,0.00,0.00,-0.129,-0.669,9.994,-0.671,0.427,0.488,28.73,7.73,0.00,2.5,0.0,1,1,1,1
5200438,1,0,1,0.000,0.000,0.000,0.000,1,1,52,3246,0,0,0,0,0.00,0.00,-0.123,-0.684,10.001,-0.671,0.488,0.427,28.71,7.75,0.00,2.5,0.0,1,1,1,1
5210449,1,0,1,0.000,0.000,0.000,0.000,1,1,52,3246,0,0,0,0,0.00,0.00,-0.113,-0.679,10.007,-0.610,0.427,0.427,28.68,7.74,0.00,2.5,0.0,1,1,1,1
5220464,1,0,1,0.000,0.000,0.000,0.000,1,1,52,3246,0,0,0,0,0.00,0.00,-0.119,-0.666,9.991,-0.732,0.427,0.427,28.70,7.76,0.00,2.2,0.0,1,1,1,1
5230464,1,0,1,0.000,0.000,0.000,0.000,1,1,52,3246,0,0,0,0,0.00,0.00,-0.129,-0.667,9.987,-0.793,0.427,0.427,28.70,7.75,0.00,2.5,0.0,1,1,1,1
5240464,1,0,1,0.000,0.000,0.000,0.000,1,1,52,3246,0,0,0,0,0.00,0.00,-0.120,-0.673,9.989,-0.854,0.549,0.427,28.68,7.74,0.00,2.5,0.0,1,1,1,1
5250464,1,0,1,0.000,0.000,0.000,0.000,1,1,52,3246,0,0,0,0,0.00,0.00,-0.114,-0.669,9.997,-0.793,0.427,0.427,28.69,7.75,0.00,2.5,0.0,1,1,1,1
5260464,1,0,1,0.000,0.000,0.000,0.000,1,1,52,3246,0,0,0,0,0.00,0.00,-0.142,-0.670,10.002,-0.732,0.427,0.427,28.69,7.75,0.00,2.5,0.0,1,1,1,1
5270470,1,0,1,0.000,0.000,0.000,0.000,1,1,52,3246,0,0,0,0,0.00,0.00,-0.141,-0.670,9.973,-0.732,0.366,0.427,28.70,7.74,0.00,2.5,0.0,1,1,1,1
5280479,1,0,1,0.000,0.000,0.000,0.000,1,1,52,3246,0,0,0,0,0.00,0.00,-0.120,-0.668,9.962,-0.732,0.366,0.427,28.71,7.75,0.00,2.5,0.0,1,1,1,1
5290485,1,0,1,0.000,0.000,0.000,0.000,1,1,52,3246,0,0,0,0,0.00,0.00,-0.141,-0.673,9.989,-0.793,0.488,0.488,28.71,7.75,0.00,2.5,0.0,1,1,1,1
5300485,1,0,1,0.000,0.000,0.000,0.000,1,1,52,3246,0,0,0,0,0.00,0.00,-0.142,-0.676,10.001,-0.793,0.366,0.427,28.71,7.72,0.00,2.5,0.0,1,1,1,1
5310487,1,0,1,0.000,0.000,0.000,0.000,1,1,52,3246,0,0,0,0,0.00,0.00,-0.133,-0.667,9.995,-0.732,0.488,0.488,28.71,7.74,0.00,2.5,0.0,1,1,1,1
5320494,1,0,1,0.000,0.000,0.000,0.000,1,1,52,3246,0,0,0,0,0.00,0.00,-0.127,-0.672,10.011,-0.732,0.488,0.366,28.66,7.75,0.00,2.8,0.0,1,1,1,1
5330494,1,0,1,0.000,0.000,0.000,0.000,1,1,52,3246,0,0,0,0,0.00,0.00,-0.120,-0.660,9.968,-0.793,0.427,0.427,28.74,7.74,0.00,2.5,0.0,1,1,1,1
5340494,1,0,1,0.000,0.000,0.000,0.000,1,1,52,3246,0,0,0,0,0.00,0.00,-0.122,-0.645,9.984,-0.732,0.427,0.366,28.70,7.77,0.00,2.2,0.0,1,1,1,1
5350494,1,0,1,0.000,0.000,0.000,0.000,1,1,52,3246,0,0,0,0,0.00,0.00,-0.112,-0.642,10.010,-0.671,0.427,0.427,28.69,7.75,0.00,2.5,0.0,1,1,1,1
5360494,1,0,1,0.000,0.000,0.000,0.000,1,1,52,3246,0,0,0,0,0.00,0.00,-0.120,-0.676,10.002,-0.671,0.427,0.427,28.67,7.75,0.00,2.5,0.0,1,1,1,1
5370501,1,0,1,0.000,0.000,0.000,0.000,1,1,52,3246,0,0,0,0,0.00,0.00,-0.123,-0.678,9.998,-0.732,0.427,0.427,28.72,7.74,0.00,2.5,0.0,1,1,1,1
5380501,1,0,1,0.000,0.000,0.000,0.000,1,1,52,3246,0,0,0,0,0.00,0.00,-0.132,-0.661,10.000,-0.732,0.427,0.488,28.73,7.74,0.00,2.5,0.0,1,1,1,1
5390509,1,0,1,0.000,0.000,0.000,0.000,1,1,52,3246,0,0,0,0,0.00,0.00,-0.136,-0.671,9.989,-0.732,0.427,0.366,28.73,7.74,0.00,2.5,0.0,1,1,1,1
5400509,1,0,1,0.000,0.000,0.000,0.000,1,1,52,3246,0,0,0,0,0.00,0.00,-0.114,-0.652,9.993,-0.854,0.427,0.427,28.71,7.73,0.00,2.5,0.0,1,1,1,1
5410509,1,0,1,0.000,0.000,0.000,0.000,1,1,52,3246,0,0,0,0,0.00,0.00,-0.125,-0.669,10.002,-0.793,0.366,0.427,28.70,7.75,0.00,2.5,0.0,1,1,1,1
5420516,1,0,1,0.000,0.000,0.000,0.000,1,1,52,3246,0,0,0,0,0.00,0.00,-0.112,-0.680,9.995,-0.732,0.366,0.488,28.72,7.75,0.00,2.5,0.0,1,1,1,1
5430524,1,0,1,0.000,0.000,0.000,0.000,1,1,52,3246,0,0,0,0,0.00,0.00,-0.125,-0.664,9.999,-0.793,0.488,0.427,28.72,7.74,0.00,2.5,0.0,1,1,1,1
5440531,1,0,1,0.000,0.000,0.000,0.000,1,1,52,3246,0,0,0,0,0.00,0.00,-0.116,-0.658,9.994,-0.732,0.549,0.427,28.69,7.75,0.00,2.5,0.0,1,1,1,1
5450540,1,0,1,0.000,0.000,0.000,0.000,1,1,52,3246,0,0,0,0,0.00,0.00,-0.123,-0.669,9.996,-0.732,0.427,0.427,28.67,7.74,0.00,2.5,0.0,1,1,1,1
5460546,1,0,1,0.000,0.000,0.000,0.000,1,1,52,3246,0,0,0,0,0.00,0.00,-0.131,-0.663,9.986,-0.793,0.366,0.366,28.70,7.77,0.00,2.5,0.0,1,1,1,1
5470555,1,0,1,0.000,0.000,0.000,0.000,1,1,52,3246,0,0,0,0,0.00,0.00,-0.135,-0.677,9.974,-0.854,0.427,0.427,28.71,7.76,0.00,2.5,0.0,1,1,1,1
5480555,1,0,1,0.000,0.000,0.000,0.000,1,1,52,3246,0,0,0,0,0.00,0.00,-0.124,-0.684,10.017,-0.793,0.427,0.427,28.70,7.74,0.00,2.2,0.0,1,1,1,1
5490555,1,0,1,0.000,0.000,0.000,0.000,1,1,52,3246,0,0,0,0,0.00,0.00,-0.122,-0.662,9.994,-0.793,0.488,0.488,28.68,7.75,0.00,2.5,0.0,1,1,1,1
5500561,1,0,1,0.000,0.000,0.000,0.000,1,1,52,3246,0,0,0,0,0.00,0.00,-0.122,-0.672,10.004,-0.854,0.427,0.488,28.72,7.75,0.00,2.2,0.0,1,1,1,1
5510561,1,0,1,0.000,0.000,0.000,0.000,1,1,52,3246,0,0,0,0,0.00,0.00,-0.121,-0.670,9.997,-0.793,0.488,0.427,28.70,7.74,0.00,2.5,0.0,1,1,1,1
5520570,1,0,1,0.000,0.000,0.000,0.000,1,1,52,3246,0,0,0,0,0.00,0.00,-0.130,-0.658,9.972,-0.732,0.366,0.427,28.70,7.74,0.00,2.5,0.0,1,1,1,1
5530576,1,0,1,0.000,0.000,0.000,0.000,1,1,52,3246,0,0,0,0,0.00,0.00,-0.124,-0.673,9.969,-0.732,0.488,0.427,28.71,7.75,0.00,2.5,0.0,1,1,1,1
5540585,1,0,1,0.000,0.000,0.000,0.000,1,1,52,3246,0,0,0,0,0.00,0.00,-0.120,-0.667,10.009,-0.793,0.488,0.427,28.67,7.76,0.00,2.2,0.0,1,1,1,1
5550585,1,0,1,0.000,0.000,0.000,0.000,1,1,52,3246,0,0,0,0,0.00,0.00,-0.122,-0.670,10.003,-0.793,0.488,0.427,28.71,7.75,0.00,2.5,0.0,1,1,1,1
5560592,1,0,1,0.000,0.000,0.000,0.000,1,1,52,3246,0,0,0,0,0.00,0.00,-0.099,-0.661,9.995,-0.671,0.488,0.427,28.73,7.74,0.00,2.5,0.0,1,1,1,1
5570592,1,0,1,0.000,0.000,0.000,0.000,1,1,52,3246,0,0,0,0,0.00,0.00,-0.122,-0.685,10.006,-0.671,0.427,0.488,28.68,7.75,0.00,2.5,0.0,1,1,1,1
5580600,1,0,1,0.000,0.000,0.000,0.000,1,1,52,3246,0,0,0,0,0.00,0.00,-0.130,-0.694,9.981,-0.793,0.427,0.488,28.72,7.75,0.00,2.5,0.0,1,1,1,1
5590600,1,0,1,0.000,0.000,0.000,0.000,1,1,52,3246,0,0,0,0,0.00,0.00,-0.139,-0.675,9.989,-0.793,0.427,0.488,28.74,7.73,0.00,2.5,0.0,1,1,1,1
5600600,1,0,1,0.000,0.000,0.000,0.000,1,1,52,3246,0,0,0,0,0.00,0.00,-0.123,-0.667,9.999,-0.732,0.427,0.427,28.74,7.75,0.00,2.5,0.0,1,1,1,1
5610605,1,0,1,0.000,0.000,0.000,0.000,1,1,52,3246,0,0,0,0,0.00,0.00,-0.120,-0.675,9.998,-0.793,0.488,0.366,28.70,7.73,0.00,2.5,0.0,1,1,1,1
5620615,1,0,1,0.000,0.000,0.000,0.000,1,1,52,3246,0,0,0,0,0.00,0.00,-0.134,-0.661,9.992,-0.854,0.488,0.427,28.70,7.75,0.00,2.2,0.0,1,1,1,1
5630622,1,0,1,0.000,0.000,0.000,0.000,1,1,52,3246,0,0,0,0,0.00,0.00,-0.127,-0.663,10.011,-0.732,0.427,0.427,28.73,7.73,0.00,2.5,0.0,1,1,1,1
5640631,1,0,1,0.000,0.000,0.000,0.000,1,1,52,3246,0,0,0,0,0.00,0.00,-0.111,-0.663,10.004,-0.854,0.488,0.488,28.68,7.75,0.00,2.5,0.0,1,1,1,1
5650637,1,0,1,0.000,0.000,0.000,0.000,1,1,52,3246,0,0,0,0,0.00,0.00,-0.122,-0.667,10.000,-0.854,0.427,0.427,28.70,7.76,0.00,2.5,0.0,1,1,1,1
5660637,1,0,1,0.000,0.000,0.000,0.000,1,1,52,3246,0,0,0,0,0.00,0.00,-0.139,-0.659,10.020,-0.793,0.488,0.427,28.72,7.73,0.00,2.5,0.0,1,1,1,1
5670646,1,0,1,0.000,0.000,0.000,0.000,1,1,52,3246,0,0,0,0,0.00,0.00,-0.149,-0.661,10.011,-0.732,0.427,0.549,28.68,7.75,0.00,2.5,0.0,1,1,1,1
5680652,1,0,1,0.000,0.000,0.000,0.000,1,1,52,3246,0,0,0,0,0.00,0.00,-0.139,-0.655,10.009,-0.732,0.488,0.427,28.72,7.75,0.00,2.5,0.0,1,1,1,1
5690661,1,0,1,0.000,0.000,0.000,0.000,1,1,52,3246,0,0,0,0,0.00,0.00,-0.129,-0.687,9.988,-0.671,0.427,0.366,28.70,7.74,0.00,2.5,0.0,1,1,1,1
5700661,1,0,1,0.000,0.000,0.000,0.000,1,1,52,3246,0,0,0,0,0.00,0.00,-0.119,-0.662,9.993,-0.732,0.488,0.549,28.73,7.75,0.00,2.5,0.0,1,1,1,1
5710661,1,0,1,0.000,0.000,0.000,0.000,1,1,52,3246,0,0,0,0,0.00,0.00,-0.135,-0.651,9.992,-0.854,0.427,0.549,28.73,7.75,0.00,2.2,0.0,1,1,1,1
5720667,1,0,1,0.000,0.000,0.000,0.000,1,1,52,3246,0,0,0,0,0.00,0.00,-0.139,-0.655,9.985,-0.854,0.366,0.488,28.70,7.76,0.00,2.2,0.0,1,1,1,1
5730667,1,0,1,0.000,0.000,0.000,0.000,1,1,52,3246,0,0,0,0,0.00,0.00,-0.123,-0.659,10.000,-0.854,0.366,0.427,28.71,7.75,0.00,2.5,0.0,1,1,1,1
5740667,1,0,1,0.000,0.000,0.000,0.000,1,1,52,3246,0,0,0,0,0.00,0.00,-0.133,-0.674,10.005,-0.732,0.549,0.488,28.74,7.75,0.00,2.5,0.0,1,1,1,1
5750667,1,0,1,0.000,0.000,0.000,0.000,1,1,52,3246,0,0,0,0,0.00,0.00,-0.128,-0.672,9.989,-0.732,0.427,0.488,28.71,7.74,0.00,2.5,0.0,1,1,1,1
5760676,1,0,1,0.000,0.000,0.000,0.000,1,1,52,3246,0,0,0,0,0.00,0.00,-0.121,-0.664,9.990,-0.854,0.427,0.427,28.71,7.74,0.00,2.5,0.0,1,1,1,1
5770683,1,0,1,0.000,0.000,0.000,0.000,1,1,52,3246,0,0,0,0,0.00,0.00,-0.129,-0.655,9.996,-0.732,0.488,0.427,28.71,7.75,0.00,2.5,0.0,1,1,1,1
5780691,1,0,1,0.000,0.000,0.000,0.000,1,1,52,3246,0,0,0,0,0.00,0.00,-0.117,-0.640,9.999,-0.671,0.488,0.427,28.73,7.76,0.00,2.5,0.0,1,1,1,1
5790698,1,0,1,0.000,0.000,0.000,0.000,1,1,52,3246,0,0,0,0,0.00,0.00,-0.113,-0.665,10.014,-0.732,0.549,0.488,28.68,7.75,0.00,2.5,0.0,1,1,1,1
5800698,1,0,1,0.000,0.000,0.000,0.000,1,1,52,3246,0,0,0,0,0.00,0.00,-0.138,-0.667,9.993,-0.732,0.488,0.427,28.68,7.74,0.00,2.5,0.0,1,1,1,1
5810698,1,0,1,0.000,0.000,0.000,0.000,1,1,52,3246,0,0,0,0,0.00,0.00,-0.141,-0.663,9.989,-0.793,0.427,0.427,28.73,7.75,0.00,2.5,0.0,1,1,1,1
5820706,1,0,1,0.000,0.000,0.000,0.000,1,1,52,3246,0,0,0,0,0.00,0.00,-0.126,-0.668,9.990,-0.793,0.488,0.488,28.78,7.73,0.00,2.5,0.0,1,1,1,1
5830713,1,0,1,0.000,0.000,0.000,0.000,1,1,52,3246,0,0,0,0,0.00,0.00,-0.131,-0.655,9.993,-0.793,0.427,0.488,28.72,7.74,0.00,2.5,0.0,1,1,1,1
5840722,1,0,1,0.000,0.000,0.000,0.000,1,1,52,3246,0,0,0,0,0.00,0.00,-0.129,-0.657,10.005,-0.732,0.366,0.488,28.72,7.75,0.00,2.5,0.0,1,1,1,1
5850722,1,0,1,0.000,0.000,0.000,0.000,1,1,52,3246,0,0,0,0,0.00,0.00,-0.143,-0.671,9.974,-0.732,0.427,0.427,28.72,7.74,0.00,2.5,0.0,1,1,1,1
5860722,1,0,1,0.000,0.000,0.000,0.000,1,1,52,3246,0,0,0,0,0.00,0.00,-0.119,-0.676,9.986,-0.854,0.427,0.427,28.69,7.75,0.00,2.5,0.0,1,1,1,1
5870722,1,0,1,0.000,0.000,0.000,0.000,1,1,52,3246,0,0,0,0,0.00,0.00,-0.120,-0.670,10.005,-0.854,0.549,0.427,28.73,7.75,0.00,2.5,0.0,1,1,1,1
5880728,1,0,1,0.000,0.000,0.000,0.000,1,1,52,3246,0,0,0,0,0.00,0.00,-0.135,-0.667,10.004,-0.793,0.427,0.427,28.70,7.75,0.00,2.5,0.0,1,1,1,1
5890737,1,0,1,0.000,0.000,0.000,0.000,1,1,52,3246,0,0,0,0,0.00,0.00,-0.135,-0.668,10.005,-0.732,0.488,0.427,28.72,7.75,0.00,2.5,0.0,1,1,1,1
5900743,1,0,1,0.000,0.000,0.000,0.000,1,1,52,3246,0,0,0,0,0.00,0.00,-0.138,-0.672,10.000,-0.854,0.366,0.366,28.70,7.74,0.00,2.5,0.0,1,1,1,1
5910752,1,0,1,0.000,0.000,0.000,0.000,1,1,52,3246,0,0,0,0,0.00,0.00,-0.131,-0.670,9.983,-0.854,0.427,0.488,28.74,7.74,0.00,2.5,0.0,1,1,1,1
5920752,1,0,1,0.000,0.000,0.000,0.000,1,1,52,3246,0,0,0,0,0.00,0.00,-0.139,-0.670,10.000,-0.854,0.427,0.488,28.72,7.75,0.00,2.2,0.0,1,1,1,1
5930752,1,0,1,0.000,0.000,0.000,0.000,1,1,52,3246,0,0,0,0,0.00,0.00,-0.139,-0.684,10.016,-0.793,0.488,0.427,28.74,7.74,0.00,2.5,0.0,1,1,1,1
5940758,1,0,1,0.000,0.000,0.000,0.000,1,1,52,3246,0,0,0,0,0.00,0.00,-0.113,-0.682,9.997,-0.793,0.427,0.427,28.74,7.75,0.00,2.5,0.0,1,1,1,1
5950767,1,0,1,0.000,0.000,0.000,0.000,1,1,52,3246,0,0,0,0,0.00,0.00,-0.126,-0.679,9.989,-0.854,0.427,0.427,28.73,7.75,0.00,2.5,0.0,1,1,1,1
5960767,1,0,1,0.000,0.000,0.000,0.000,1,1,52,3246,0,0,0,0,0.00,0.00,-0.123,-0.663,10.008,-0.793,0.488,0.366,28.72,7.75,0.00,2.5,0.0,1,1,1,1
5970767,1,0,1,0.000,0.000,0.000,0.000,1,1,52,3246,0,0,0,0,0.00,0.00,-0.124,-0.654,10.012,-0.732,0.427,0.366,28.71,7.75,0.00,2.2,0.0,1,1,1,1
5980767,1,0,1,0.000,0.000,0.000,0.000,1,1,52,3246,0,0,0,0,0.00,0.00,-0.139,-0.665,9.992,-0.671,0.427,0.427,28.67,7.75,0.00,2.2,0.0,1,1,1,1
5990774,1,0,1,0.000,0.000,0.000,0.000,1,1,52,3246,0,0,0,0,0.00,0.00,-0.138,-0.666,10.001,-0.854,0.427,0.427,28.73,7.74,0.00,2.5,0.0,1,1,1,1
6000774,1,0,1,0.000,0.000,0.000,0.000,1,1,52,3246,0,0,0,0,0.00,0.00,-0.117,-0.682,9.992,-0.793,0.427,0.366,28.72,7.74,0.00,2.5,0.0,1,1,1,1
6010782,1,0,1,0.000,0.000,0.000,0.000,1,1,52,3246,0,0,0,0,0.00,0.00,-0.124,-0.676,9.978,-0.732,0.427,0.488,28.73,7.75,0.00,2.5,0.0,1,1,1,1
6020783,1,0,1,0.000,0.000,0.000,0.000,1,1,52,3246,0,0,0,0,0.00,0.00,-0.129,-0.678,9.984,-0.793,0.488,0.488,28.71,7.75,0.00,2.5,0.0,1,1,1,1
6030791,1,0,1,0.000,0.000,0.000,0.000,1,1,52,3246,0,0,0,0,0.00,0.00,-0.126,-0.663,9.974,-0.671,0.427,0.427,28.73,7.77,0.00,2.5,0.0,1,1,1,1
6040791,1,0,1,0.000,0.000,0.000,0.000,1,1,52,3246,0,0,0,0,0.00,0.00,-0.131,-0.664,10.002,-0.671,0.427,0.427,28.69,7.75,0.00,2.5,0.0,1,1,1,1
6050798,1,0,1,0.000,0.000,0.000,0.000,1,1,52,3246,0,0,0,0,0.00,0.00,-0.125,-0.679,9.996,-0.732,0.488,0.427,28.72,7.75,0.00,2.5,0.0,1,1,1,1
6060798,1,0,1,0.000,0.000,0.000,0.000,1,1,52,3246,0,0,0,0,0.00,0.00,-0.121,-0.670,9.987,-0.732,0.366,0.427,28.72,7.75,0.00,2.5,0.0,1,1,1,1
6070806,1,0,1,0.000,0.000,0.000,0.000,1,1,52,3246,0,0,0,0,0.00,0.00,-0.127,-0.673,9.990,-0.854,0.366,0.427,28.72,7.77,0.00,2.8,0.0,1,1,1,1
6080806,1,0,1,0.000,0.000,0.000,0.000,1,1,52,3246,0,0,0,0,0.00,0.00,-0.127,-0.685,9.987,-0.854,0.488,0.427,28.70,7.75,0.00,2.5,0.0,1,1,1,1
6090806,1,0,1,0.000,0.000,0.000,0.000,1,1,52,3246,0,0,0,0,0.00,0.00,-0.124,-0.683,9.992,-0.854,0.427,0.427,28.74,7.75,0.00,2.5,0.0,1,1,1,1
6100813,1,0,1,0.000,0.000,0.000,0.000,1,1,52,3246,0,0,0,0,0.00,0.00,-0.126,-0.671,9.984,-0.854,0.427,0.427,28.72,7.74,0.00,2.5,0.0,1,1,1,1
6110813,1,0,1,0.000,0.000,0.000,0.000,1,1,52,3246,0,0,0,0,0.00,0.00,-0.140,-0.670,10.011,-0.793,0.427,0.427,28.72,7.74,0.00,2.2,0.0,1,1,1,1
6120822,1,0,1,0.000,0.000,0.000,0.000,1,1,52,3246,0,0,0,0,0.00,0.00,-0.132,-0.685,10.000,-0.793,0.488,0.488,28.72,7.74,0.00,2.5,0.0,1,1,1,1
6130828,1,0,1,0.000,0.000,0.000,0.000,1,1,52,3246,0,0,0,0,0.00,0.00,-0.131,-0.667,9.992,-0.732,0.488,0.488,28.73,7.74,0.00,2.5,0.0,1,1,1,1
6140828,1,0,1,0.000,0.000,0.000,0.000,1,1,52,3246,0,0,0,0,0.00,0.00,-0.145,-0.663,10.024,-0.854,0.427,0.427,28.71,7.75,0.00,2.5,0.0,1,1,1,1
6150837,1,0,1,0.000,0.000,0.000,0.000,1,1,52,3246,0,0,0,0,0.00,0.00,-0.146,-0.673,9.982,-0.854,0.488,0.366,28.69,7.74,0.00,2.2,0.0,1,1,1,1
6160837,1,0,1,0.000,0.000,0.000,0.000,1,1,52,3246,0,0,0,0,0.00,0.00,-0.121,-0.671,9.983,-0.732,0.427,0.488,28.72,7.75,0.00,2.5,0.0,1,1,1,1
6170844,1,0,1,0.000,0.000,0.000,0.000,1,1,52,3246,0,0,0,0,0.00,0.00,-0.124,-0.684,9.978,-0.671,0.427,0.488,28.72,7.75,0.00,2.2,0.0,1,1,1,1
6180844,1,0,1,0.000,0.000,0.000,0.000,1,1,52,3246,0,0,0,0,0.00,0.00,-0.129,-0.690,10.005,-0.671,0.549,0.427,28.73,7.74,0.00,2.5,0.0,1,1,1,1
6190844,1,0,1,0.000,0.000,0.000,0.000,1,1,52,3246,0,0,0,0,0.00,0.00,-0.117,-0.668,10.004,-0.732,0.488,0.366,28.71,7.76,0.00,2.2,0.0,1,1,1,1
6200850,1,0,1,0.000,0.000,0.000,0.000,1,1,52,3246,0,0,0,0,0.00,0.00,-0.097,-0.685,9.982,-0.671,0.366,0.427,28.70,7.74,0.00,2.5,0.0,1,1,1,1
6210852,1,0,1,0.000,0.000,0.000,0.000,1,1,52,3246,0,0,0,0,0.00,0.00,-0.133,-0.674,10.001,-0.793,0.366,0.427,28.71,7.75,0.00,2.5,0.0,1,1,1,1
6220859,1,0,1,0.000,0.000,0.000,0.000,1,1,52,3246,0,0,0,0,0.00,0.00,-0.124,-0.666,10.020,-0.793,0.427,0.488,28.73,7.75,0.00,2.5,0.0,1,1,1,1
6230859,1,0,1,0.000,0.000,0.000,0.000,1,1,52,3246,0,0,0,0,0.00,0.00,-0.103,-0.675,10.008,-0.793,0.427,0.488,28.74,7.75,0.00,2.5,0.0,1,1,1,1
6240859,1,0,1,0.000,0.000,0.000,0.000,1,1,52,3246,0,0,0,0,0.00,0.00,-0.107,-0.664,10.002,-0.793,0.427,0.427,28.68,7.74,0.00,2.5,0.0,1,1,1,1
6250859,1,0,1,0.000,0.000,0.000,0.000,1,1,52,3246,0,0,0,0,0.00,0.00,-0.120,-0.673,9.978,-0.732,0.427,0.427,28.73,7.76,0.00,2.2,0.0,1,1,1,1
6260867,1,0,1,0.000,0.000,0.000,0.000,1,1,52,3246,0,0,0,0,0.00,0.00,-0.119,-0.663,9.981,-0.793,0.427,0.427,28.73,7.75,0.00,2.5,0.0,1,1,1,1
6270874,1,0,1,0.000,0.000,0.000,0.000,1,1,52,3246,0,0,0,0,0.00,0.00,-0.120,-0.678,9.999,-0.793,0.427,0.427,28.73,7.75,0.00,2.5,0.0,1,1,1,1
6280874,1,0,1,0.000,0.000,0.000,0.000,1,1,52,3246,0,0,0,0,0.00,0.00,-0.109,-0.678,9.990,-0.793,0.366,0.488,28.75,7.74,0.00,2.2,0.0,1,1,1,1
6290874,1,0,1,0.000,0.000,0.000,0.000,1,1,52,3246,0,0,0,0,0.00,0.00,-0.116,-0.680,10.016,-0.732,0.366,0.488,28.76,7.75,0.00,2.5,0.0,1,1,1,1
6300874,1,0,1,0.000,0.000,0.000,0.000,1,1,52,3246,0,0,0,0,0.00,0.00,-0.116,-0.673,9.992,-0.793,0.427,0.488,28.70,7.74,0.00,2.5,0.0,1,1,1,1
6310884,1,1,1,0.008,-0.050,0.100,0.000,3,1,52,3246,0,0,0,0,0.00,0.00,-0.123,-0.669,9.990,-0.793,0.427,0.366,28.69,7.69,0.00,2.2,0.0,1,1,1,1
6320889,1,1,1,0.008,-0.050,0.100,0.000,3,1,52,3246,0,0,0,0,0.00,0.00,-0.126,-0.660,10.004,-0.732,0.488,0.427,28.69,7.72,0.00,49.8,0.0,1,1,1,1
6330897,1,1,1,0.008,-0.050,0.100,0.000,3,1,52,3246,0,0,0,0,0.00,0.00,-0.135,-0.670,10.005,-0.732,0.427,0.427,28.73,7.73,0.00,49.5,0.0,1,1,1,1
6340897,1,1,1,0.008,-0.050,0.100,0.000,3,1,52,3246,0,0,0,0,0.00,0.00,-0.117,-0.678,9.996,-0.732,0.488,0.427,28.74,7.71,0.00,50.0,0.0,1,1,1,1
6350904,1,1,1,0.008,-0.050,0.100,0.000,3,1,52,3246,0,0,0,0,0.00,0.00,-0.118,-0.682,9.975,-0.671,0.427,0.488,28.73,7.72,0.00,49.8,0.1,1,1,1,1
6360904,1,1,1,0.008,-0.050,0.100,0.000,3,1,52,3246,0,0,0,0,0.00,0.00,-0.116,-0.672,9.984,-0.793,0.427,0.427,28.69,7.73,0.00,49.5,0.0,1,1,1,1
6370904,1,1,1,0.008,-0.050,0.100,0.000,3,1,52,3246,0,0,0,0,0.00,0.00,-0.120,-0.673,10.000,-0.793,0.427,0.366,28.74,7.73,0.00,50.8,0.0,1,1,1,1
6380913,1,1,1,0.008,-0.050,0.100,0.000,3,1,52,3246,0,0,0,0,0.00,0.00,-0.129,-0.696,9.993,-0.732,0.427,0.366,28.70,7.72,0.00,49.8,0.0,1,1,1,1
6390913,1,1,1,0.008,-0.050,0.100,0.000,3,1,52,3246,0,0,0,0,0.00,0.00,-0.127,-0.676,10.006,-0.732,0.427,0.488,28.68,7.72,0.00,49.8,0.0,1,1,1,1
6400913,1,1,1,0.008,-0.050,0.100,0.000,3,1,52,3246,0,0,0,0,0.00,0.00,-0.129,-0.680,10.001,-0.854,0.427,0.427,28.70,7.72,0.00,49.8,0.0,1,1,1,1
6410919,1,1,1,0.008,-0.050,0.100,0.000,3,1,52,3246,0,0,0,0,0.00,0.00,-0.129,-0.682,10.001,-0.793,0.427,0.488,28.68,7.73,0.00,49.2,0.0,1,1,1,1
6420919,1,1,1,0.008,-0.050,0.100,0.000,3,1,52,3246,0,0,0,0,0.00,0.00,-0.145,-0.687,10.002,-0.732,0.427,0.488,28.71,7.70,0.00,50.5,0.0,1,1,1,1
6430928,1,1,1,0.008,-0.050,0.100,0.000,3,1,52,3246,0,0,0,0,0.00,0.00,-0.148,-0.672,9.971,-0.732,0.488,0.366,28.71,7.70,0.00,50.8,0.0,1,1,1,1
6440935,1,1,1,0.008,-0.050,0.100,0.000,3,1,52,3246,0,0,0,0,0.00,0.00,-0.139,-0.677,9.999,-0.915,0.427,0.366,28.71,7.73,0.00,50.0,0.0,1,1,1,1
6450943,1,1,1,0.008,-0.050,0.100,0.000,3,1,52,3246,0,0,0,0,0.00,0.00,-0.124,-0.671,10.001,-0.915,0.366,0.427,28.75,7.73,0.00,50.0,0.0,1,1,1,1
6460950,1,1,1,0.008,-0.050,0.100,0.000,3,1,52,3246,0,0,0,0,0.00,0.00,-0.147,-0.685,10.005,-0.732,0.427,0.427,28.73,7.71,0.00,49.5,0.0,1,1,1,1
6470950,1,1,1,0.008,-0.050,0.100,0.000,3,1,52,3246,0,0,0,0,0.00,0.00,-0.121,-0.690,10.016,-0.732,0.427,0.366,28.72,7.69,0.00,49.2,0.0,1,1,1,1
6480958,1,1,1,0.008,-0.050,0.100,0.000,3,1,52,3246,0,0,0,0,0.00,0.00,-0.124,-0.684,9.992,-0.854,0.427,0.427,28.66,7.73,0.00,50.5,0.1,1,1,1,1
6490965,1,1,1,0.008,-0.050,0.100,0.000,3,1,52,3246,0,0,0,0,0.00,0.00,-0.119,-0.676,9.989,-0.793,0.488,0.427,28.71,7.73,0.00,49.5,0.0,1,1,1,1
6500965,1,1,1,0.008,-0.050,0.100,0.000,3,1,52,3246,0,0,0,0,0.00,0.00,-0.116,-0.669,10.003,-0.732,0.488,0.427,28.73,7.73,0.00,50.0,0.0,1,1,1,1
6510965,1,1,1,0.008,-0.050,0.100,0.000,3,1,52,3246,0,0,0,0,0.00,0.00,-0.126,-0.673,10.019,-0.732,0.488,0.488,28.71,7.74,0.00,50.2,0.0,1,1,1,1
6520973,1,1,1,0.008,-0.050,0.100,0.000,3,1,52,3246,0,0,0,0,0.00,0.00,-0.120,-0.670,10.002,-0.732,0.427,0.488,28.72,7.70,0.00,51.2,0.1,1,1,1,1
6530973,1,1,1,0.008,-0.050,0.100,0.000,3,1,52,3246,0,0,0,0,0.00,0.00,-0.135,-0.661,9.992,-0.732,0.427,0.488,28.74,7.69,0.00,50.2,0.0,1,1,1,1
6540973,1,1,1,0.008,-0.050,0.100,0.000,3,1,52,3246,0,0,0,0,0.00,0.00,-0.121,-0.676,9.993,-0.732,0.488,0.427,28.74,7.73,0.00,49.2,0.0,1,1,1,1
6550980,1,1,1,0.008,-0.050,0.100,0.000,3,1,52,3246,0,0,0,0,0.00,0.00,-0.121,-0.684,9.981,-0.732,0.366,0.488,28.71,7.71,0.00,49.8,0.0,1,1,1,1
6560980,1,1,1,0.008,-0.050,0.100,0.000,3,1,52,3246,0,0,0,0,0.00,0.00,-0.118,-0.654,9.990,-0.793,0.427,0.488,28.75,7.71,0.00,50.0,0.2,1,1,1,1
6570989,1,1,1,0.008,-0.050,0.100,0.000,3,1,52,3246,0,0,0,0,0.00,0.00,-0.124,-0.658,9.986,-0.732,0.427,0.366,28.73,7.52,0.00,50.2,0.0,1,1,1,1
6580995,1,1,1,0.008,-0.050,0.100,0.000,3,1,52,3246,0,0,0,0,0.00,0.00,-0.130,-0.677,10.006,-0.732,0.427,0.488,28.71,7.73,0.01,50.5,0.3,1,1,1,1
6591004,1,1,1,0.008,-0.050,0.100,0.000,3,1,52,3246,0,0,0,0,0.00,0.00,-0.135,-0.661,10.004,-0.671,0.488,0.488,28.75,7.69,0.00,49.2,0.1,1,1,1,1
6601016,1,1,1,0.008,-0.050,0.100,0.000,3,1,52,3246,0,0,0,0,0.00,0.00,-0.111,-0.673,10.008,-0.793,0.488,0.427,28.66,7.39,0.00,49.2,0.0,1,1,1,1
6611026,1,1,1,0.008,-0.050,0.100,0.000,3,1,52,3246,0,0,0,0,0.00,0.00,-0.130,-0.682,9.996,-0.854,0.488,0.488,28.66,7.70,0.00,50.5,0.0,1,1,1,1
6621034,1,1,1,0.008,-0.050,0.100,0.000,3,1,52,3246,0,0,0,0,0.00,0.00,-0.125,-0.672,9.999,-0.732,0.427,0.427,28.69,7.73,0.00,50.5,0.0,1,1,1,1
6631034,1,1,1,0.008,-0.050,0.100,0.000,3,1,52,3246,0,0,0,0,0.00,0.00,-0.108,-0.672,9.999,-0.793,0.427,0.366,28.69,7.73,0.00,48.8,0.0,1,1,1,1
6641034,1,1,1,0.008,-0.050,0.100,0.000,3,1,52,3246,0,0,0,0,0.00,0.00,-0.124,-0.691,10.001,-0.671,0.427,0.427,28.73,7.71,0.00,49.5,0.0,1,1,1,1
6651041,1,1,1,0.008,-0.050,0.100,0.000,3,1,52,3246,0,0,0,0,0.00,0.00,-0.114,-0.676,10.004,-0.732,0.488,0.366,28.68,7.69,0.00,51.0,0.1,1,1,1,1
6661041,1,1,1,0.008,-0.050,0.100,0.000,3,1,52,3246,0,0,0,0,0.00,0.00,-0.119,-0.663,9.995,-0.793,0.366,0.488,28.73,7.70,0.00,49.8,0.0,1,1,1,1
6671041,1,1,1,0.008,-0.050,0.100,0.000,3,1,52,3246,0,0,0,0,0.00,0.00,-0.120,-0.673,9.990,-0.793,0.427,0.427,28.72,7.56,0.00,49.2,0.0,1,1,1,1
6681041,1,1,1,0.008,-0.050,0.100,0.000,3,1,52,3246,0,0,0,0,0.00,0.00,-0.123,-0.689,9.983,-0.793,0.549,0.427,28.74,8.65,0.00,49.5,0.0,1,1,1,1
6691049,1,1,1,0.008,-0.050,0.100,0.000,3,1,52,3246,0,0,0,0,0.00,0.00,-0.113,-0.675,9.982,-0.732,0.427,0.549,28.70,7.69,0.00,50.8,0.0,1,1,1,1
6701056,1,1,1,0.008,-0.050,0.100,0.000,3,1,52,3246,0,0,0,0,0.00,0.00,-0.126,-0.664,9.999,-0.732,0.427,0.427,28.71,7.73,0.00,50.0,0.0,1,1,1,1
6711056,1,1,1,0.008,-0.050,0.100,0.000,3,1,52,3246,0,0,0,0,0.00,0.00,-0.129,-0.665,9.994,-0.732,0.610,0.366,28.72,7.73,0.00,50.0,0.0,1,1,1,1
6721064,1,1,1,0.008,-0.050,0.100,0.000,3,1,52,3246,0,0,0,0,0.00,0.00,-0.123,-0.648,9.985,-0.671,0.549,0.488,28.69,7.69,0.00,50.0,0.0,1,1,1,1
6731071,1,1,1,0.008,-0.050,0.100,0.000,3,1,52,3246,0,0,0,0,0.00,0.00,-0.122,-0.658,9.972,-0.732,0.427,0.488,28.69,7.73,0.00,49.5,0.0,1,1,1,1
6741071,1,1,1,0.008,-0.050,0.100,0.000,3,1,52,3246,0,0,0,0,0.00,0.00,-0.108,-0.673,9.986,-0.793,0.427,0.427,28.67,7.72,0.00,49.2,0.0,1,1,1,1
6751080,1,1,1,0.008,-0.050,0.100,0.000,3,1,52,3246,0,0,0,0,0.00,0.00,-0.130,-0.663,10.011,-0.793,0.427,0.488,28.71,7.73,0.00,50.5,0.0,1,1,1,1
6761086,1,1,1,0.008,-0.050,0.100,0.000,3,1,52,3246,0,0,0,0,0.00,0.00,-0.140,-0.681,9.993,-0.671,0.427,0.488,28.72,7.72,0.00,50.0,0.0,1,1,1,1
6771086,1,1,1,0.008,-0.050,0.100,0.000,3,1,52,3246,0,0,0,0,0.00,0.00,-0.123,-0.679,9.993,-0.671,0.427,0.427,28.71,7.73,0.00,50.0,0.0,1,1,1,1
6781086,1,1,1,0.008,-0.050,0.100,0.000,3,1,52,3246,0,0,0,0,0.00,0.00,-0.148,-0.666,9.978,-0.854,0.427,0.427,28.71,7.73,0.00,50.5,0.0,1,1,1,1
6791086,1,1,1,0.008,-0.050,0.100,0.000,3,1,52,3246,0,0,0,0,0.00,0.00,-0.139,-0.678,9.992,-0.732,0.427,0.488,28.73,7.73,0.00,50.5,0.0,1,1,1,1
6801086,1,1,1,0.008,-0.050,0.100,0.000,3,1,52,3246,0,0,0,0,0.00,0.00,-0.140,-0.687,9.987,-0.732,0.366,0.427,28.68,7.73,0.00,50.5,0.0,1,1,1,1
6811086,1,1,1,0.008,-0.050,0.100,0.000,3,1,52,3246,0,0,0,0,0.00,0.00,-0.148,-0.666,9.987,-0.976,0.427,0.488,28.73,7.70,0.00,50.0,0.0,1,1,1,1
6821086,1,1,1,0.008,-0.050,0.100,0.000,3,1,52,3246,0,0,0,0,0.00,0.00,-0.133,-0.681,9.999,-0.854,0.366,0.488,28.72,7.70,0.00,49.5,0.0,1,1,1,1
6831086,1,1,1,0.008,-0.050,0.100,0.000,3,1,52,3246,0,0,0,0,0.00,0.00,-0.127,-0.680,9.992,-0.793,0.549,0.488,28.72,7.70,0.00,50.2,0.1,1,1,1,1
6841095,1,1,1,0.008,-0.050,0.100,0.000,3,1,52,3246,0,0,0,0,0.00,0.00,-0.115,-0.669,9.992,-0.854,0.549,0.427,28.74,7.70,0.00,50.5,0.0,1,1,1,1
6851095,1,1,1,0.008,-0.050,0.100,0.000,3,1,52,3246,0,0,0,0,0.00,0.00,-0.133,-0.673,9.987,-0.793,0.427,0.427,28.72,7.73,0.00,50.5,0.1,1,1,1,1
6861102,1,1,1,0.008,-0.050,0.100,0.000,3,1,52,3246,0,0,0,0,0.00,0.00,-0.142,-0.673,10.001,-0.854,0.427,0.427,28.67,7.72,0.00,49.8,0.2,1,1,1,1
6871110,1,1,1,0.008,-0.050,0.100,0.000,3,1,52,3246,0,0,0,0,0.00,0.00,-0.128,-0.691,10.008,-0.793,0.488,0.427,28.72,7.71,0.01,49.5,0.3,1,1,1,1
6881110,1,1,1,0.008,-0.050,0.100,0.000,3,1,52,3246,0,0,0,0,0.00,0.00,-0.114,-0.667,10.005,-0.793,0.427,0.427,28.70,7.69,0.00,50.0,0.0,1,1,1,1
6891110,1,1,1,0.008,-0.050,0.100,0.000,3,1,52,3246,0,0,0,0,0.00,0.00,-0.138,-0.674,10.001,-0.854,0.427,0.427,28.72,7.72,0.00,50.5,0.0,1,1,1,1
6901117,1,1,1,0.008,-0.050,0.100,0.000,3,1,52,3246,0,0,0,0,0.00,0.00,-0.129,-0.665,9.997,-0.671,0.427,0.427,28.66,7.73,0.00,50.2,0.0,1,1,1,1
6911125,1,1,1,0.008,-0.050,0.100,0.000,3,1,52,3246,0,0,0,0,0.00,0.00,-0.131,-0.684,9.995,-0.793,0.488,0.427,28.74,7.71,0.00,50.2,0.0,1,1,1,1
6921125,1,1,1,0.008,-0.050,0.100,0.000,3,1,52,3246,0,0,0,0,0.00,0.00,-0.119,-0.675,10.001,-0.793,0.488,0.366,28.71,7.70,0.00,50.8,0.3,1,1,1,1
6931125,1,1,1,0.008,-0.050,0.100,0.000,3,1,52,3246,0,0,0,0,0.00,0.00,-0.121,-0.654,9.990,-0.732,0.549,0.366,28.71,7.70,0.00,50.0,0.0,1,1,1,1
6941125,1,1,1,0.008,-0.050,0.100,0.000,3,1,52,3246,0,0,0,0,0.00,0.00,-0.119,-0.666,9.971,-0.793,0.488,0.488,28.72,7.72,0.00,49.5,0.0,1,1,1,1
6951125,1,1,1,0.008,-0.050,0.100,0.000,3,1,52,3246,0,0,0,0,0.00,0.00,-0.132,-0.691,9.996,-0.732,0.488,0.488,28.72,7.70,0.00,49.8,0.0,1,1,1,1
6961132,1,1,1,0.008,-0.050,0.100,0.000,3,1,52,3246,0,0,0,0,0.00,0.00,-0.132,-0.680,9.970,-0.732,0.549,0.427,28.74,7.70,0.00,50.5,0.0,1,1,1,1
6971132,1,1,1,0.008,-0.050,0.100,0.000,3,1,52,3246,0,0,0,0,0.00,0.00,-0.137,-0.664,9.982,-0.732,0.488,0.366,28.70,7.69,0.00,50.5,0.1,1,1,1,1
6981140,1,1,1,0.008,-0.050,0.100,0.000,3,1,52,3246,0,0,0,0,0.00,0.00,-0.134,-0.654,10.002,-0.854,0.488,0.427,28.74,7.71,0.00,50.8,0.0,1,1,1,1
6991140,1,1,1,0.008,-0.050,0.100,0.000,3,1,52,3246,0,0,0,0,0.00,0.00,-0.129,-0.688,9.998,-0.915,0.427,0.427,28.75,7.74,0.00,50.0,0.0,1,1,1,1
7001147,1,1,1,0.008,-0.050,0.100,0.000,3,1,52,3246,0,0,0,0,0.00,0.00,-0.127,-0.675,9.995,-0.793,0.427,0.427,28.72,7.70,0.00,49.5,0.0,1,1,1,1
7011156,1,1,1,0.008,-0.050,0.100,0.000,3,1,52,3246,0,0,0,0,0.00,0.00,-0.126,-0.691,10.007,-0.854,0.366,0.488,28.74,7.73,0.00,49.5,0.0,1,1,1,1
7021171,1,1,1,0.008,-0.050,0.100,0.000,3,1,52,3246,0,0,0,0,0.00,0.00,-0.136,-0.686,9.999,-0.732,0.427,0.488,28.76,7.70,0.00,50.5,0.0,1,1,1,1
7031177,1,1,1,0.008,-0.050,0.100,0.000,3,1,52,3246,0,0,0,0,0.00,0.00,-0.120,-0.682,9.973,-0.732,0.427,0.427,28.65,7.70,0.00,50.5,0.0,1,1,1,1
7041177,1,1,1,0.008,-0.050,0.100,0.000,3,1,52,3246,0,0,0,0,0.00,0.00,-0.124,-0.687,9.987,-0.793,0.366,0.488,28.74,7.72,0.00,50.8,0.1,1,1,1,1
7051186,1,1,1,0.008,-0.050,0.100,0.000,3,1,52,3246,0,0,0,0,0.00,0.00,-0.128,-0.675,10.016,-0.732,0.427,0.488,28.70,7.74,0.00,50.0,0.0,1,1,1,1
7061186,1,1,1,0.008,-0.050,0.100,0.000,3,1,52,3246,0,0,0,0,0.00,0.00,-0.127,-0.679,10.002,-0.854,0.427,0.488,28.68,7.73,0.00,49.8,0.0,1,1,1,1
7071193,1,1,1,0.008,-0.050,0.100,0.000,3,1,52,3246,0,0,0,0,0.00,0.00,-0.122,-0.658,9.987,-0.854,0.366,0.366,28.71,7.70,0.00,49.5,0.0,1,1,1,1
7081201,1,1,1,0.008,-0.050,0.100,0.000,3,1,52,3246,0,0,0,0,0.00,0.00,-0.135,-0.678,10.001,-0.793,0.427,0.488,28.73,7.73,0.00,49.5,0.0,1,1,1,1
7091201,1,1,1,0.008,-0.050,0.100,0.000,3,1,52,3246,0,0,0,0,0.00,0.00,-0.126,-0.678,9.977,-0.793,0.427,0.488,28.73,7.70,0.00,49.5,0.0,1,1,1,1
7101201,1,1,1,0.008,-0.050,0.100,0.000,3,1,52,3246,0,0,0,0,0.00,0.00,-0.149,-0.672,9.993,-0.793,0.427,0.488,28.71,7.73,0.00,50.5,0.0,1,1,1,1
7111201,1,1,1,0.008,-0.050,0.100,0.000,3,1,52,3246,0,0,0,0,0.00,0.00,-0.133,-0.681,10.010,-0.793,0.427,0.427,28.71,7.71,0.00,50.5,0.0,1,1,1,1
7121208,1,1,1,0.008,-0.050,0.100,0.000,3,1,52,3246,0,0,0,0,0.00,0.00,-0.112,-0.664,9.985,-0.671,0.427,0.427,28.71,7.70,0.00,51.0,0.0,1,1,1,1
7131216,1,1,1,0.008,-0.050,0.100,0.000,3,1,52,3246,0,0,0,0,0.00,0.00,-0.133,-0.669,9.981,-0.793,0.488,0.427,28.72,7.72,0.00,49.2,0.0,1,1,1,1
7141216,1,1,1,0.008,-0.050,0.100,0.000,3,1,52,3246,0,0,0,0,0.00,0.00,-0.142,-0.678,9.990,-0.854,0.366,0.488,28.75,7.69,0.00,50.0,0.1,1,1,1,1
7151223,1,1,1,0.008,-0.050,0.100,0.000,3,1,52,3246,0,0,0,0,0.00,0.00,-0.123,-0.681,9.992,-0.854,0.488,0.488,28.76,7.73,0.00,51.0,0.0,1,1,1,1
7161223,1,1,1,0.008,-0.050,0.100,0.000,3,1,52,3246,0,0,0,0,0.00,0.00,-0.127,-0.658,9.997,-0.732,0.488,0.427,28.73,7.71,0.00,51.5,0.0,1,1,1,1
7171223,1,1,1,0.008,-0.050,0.100,0.000,3,1,52,3246,0,0,0,0,0.00,0.00,-0.134,-0.675,9.992,-0.793,0.488,0.366,28.75,7.70,0.00,50.0,0.0,1,1,1,1
7181229,1,1,1,0.008,-0.050,0.100,0.000,3,1,52,3246,0,0,0,0,0.00,0.00,-0.123,-0.668,9.996,-0.732,0.427,0.427,28.71,7.72,0.00,50.0,0.0,1,1,1,1
7191231,1,1,1,0.008,-0.050,0.100,0.000,3,1,52,3246,0,0,0,0,0.00,0.00,-0.135,-0.669,10.008,-0.854,0.427,0.427,28.75,7.69,0.00,49.8,0.2,1,1,1,1
7201231,1,1,1,0.008,-0.050,0.100,0.000,3,1,52,3246,0,0,0,0,0.00,0.00,-0.142,-0.678,9.997,-0.732,0.427,0.549,28.70,7.69,0.00,50.8,0.0,1,1,1,1
7211238,1,1,1,0.008,-0.050,0.100,0.000,3,1,52,3246,0,0,0,0,0.00,0.00,-0.133,-0.669,10.002,-0.732,0.427,0.488,28.71,7.73,0.00,48.8,0.0,1,1,1,1
7221238,1,1,1,0.008,-0.050,0.100,0.000,3,1,52,3246,0,0,0,0,0.00,0.00,-0.126,-0.670,10.005,-0.732,0.488,0.427,28.75,7.70,0.00,49.5,0.0,1,1,1,1
7231247,1,1,1,0.008,-0.050,0.100,0.000,3,1,52,3246,0,0,0,0,0.00,0.00,-0.137,-0.669,10.011,-0.793,0.427,0.427,28.69,7.74,0.00,50.0,0.0,1,1,1,1
7241247,1,1,1,0.008,-0.050,0.100,0.000,3,1,52,3246,0,0,0,0,0.00,0.00,-0.143,-0.664,9.997,-0.732,0.488,0.488,28.75,7.74,0.00,51.0,0.2,1,1,1,1
7251253,1,1,1,0.008,-0.050,0.100,0.000,3,1,52,3246,0,0,0,0,0.00,0.00,-0.114,-0.675,9.996,-0.732,0.549,0.427,28.73,7.71,0.00,50.5,0.1,1,1,1,1
7261262,1,1,1,0.008,-0.050,0.100,0.000,3,1,52,3246,0,0,0,0,0.00,0.00,-0.114,-0.661,10.000,-0.854,0.488,0.366,28.72,7.73,0.00,50.5,0.0,1,1,1,1
7271268,1,1,1,0.008,-0.050,0.100,0.000,3,1,52,3246,0,0,0,0,0.00,0.00,-0.123,-0.661,10.002,-0.793,0.427,0.427,28.68,7.71,0.00,49.2,0.0,1,1,1,1
7281277,1,1,1,0.008,-0.050,0.100,0.000,3,1,52,3246,0,0,0,0,0.00,0.00,-0.127,-0.668,9.974,-0.671,0.427,0.427,28.73,7.73,0.00,49.5,0.0,1,1,1,1
7291277,1,1,1,0.008,-0.050,0.100,0.000,3,1,52,3246,0,0,0,0,0.00,0.00,-0.122,-0.679,10.010,-0.671,0.427,0.488,28.73,7.72,0.00,50.5,0.0,1,1,1,1
7301277,1,1,1,0.008,-0.050,0.100,0.000,3,1,52,3246,0,0,0,0,0.00,0.00,-0.125,-0.663,10.006,-0.732,0.427,0.488,28.72,7.72,0.00,49.5,0.0,1,1,1,1
7311297,1,1,1,0.008,-0.050,0.100,0.000,3,1,52,3246,0,0,0,0,0.00,0.00,-0.119,-0.672,10.001,-0.732,0.488,0.427,28.71,7.69,0.00,49.8,0.0,1,1,1,1
7321297,1,1,1,0.008,-0.050,0.100,0.000,3,1,52,3246,0,0,0,0,0.00,0.00,-0.138,-0.666,10.017,-0.793,0.427,0.366,28.71,7.73,0.00,50.0,0.0,1,1,1,1
7331303,1,1,1,0.008,-0.050,0.100,0.000,3,1,52,3246,0,0,0,0,0.00,0.00,-0.125,-0.664,10.010,-0.671,0.427,0.427,28.72,7.71,0.00,50.2,0.0,1,1,1,1
7341303,1,1,1,0.008,-0.050,0.100,0.000,3,1,52,3246,0,0,0,0,0.00,0.00,-0.135,-0.671,9.996,-0.793,0.488,0.488,28.72,7.71,0.00,50.8,0.0,1,1,1,1
7351312,1,1,1,0.008,-0.050,0.100,0.000,3,1,52,3246,0,0,0,0,0.00,0.00,-0.123,-0.672,10.026,-0.793,0.427,0.427,28.72,7.72,0.00,49.5,0.0,1,1,1,1
7361319,1,1,1,0.008,-0.050,0.100,0.000,3,1,52,3246,0,0,0,0,0.00,0.00,-0.123,-0.674,9.998,-0.732,0.427,0.366,28.70,7.70,0.00,50.2,0.1,1,1,1,1
7371327,1,1,1,0.008,-0.050,0.100,0.000,3,1,52,3246,0,0,0,0,0.00,0.00,-0.115,-0.672,9.995,-0.732,0.366,0.427,28.68,7.73,0.00,49.8,0.1,1,1,1,1
7381327,1,1,1,0.008,-0.050,0.100,0.000,3,1,52,3246,0,0,0,0,0.00,0.00,-0.113,-0.680,9.986,-0.671,0.488,0.488,28.72,7.72,0.00,50.2,0.0,1,1,1,1
7391327,1,1,1,0.008,-0.050,0.100,0.000,3,1,52,3246,0,0,0,0,0.00,0.00,-0.115,-0.667,9.979,-0.671,0.549,0.427,28.70,7.70,0.00,50.2,0.0,1,1,1,1
7401334,1,1,1,0.008,-0.050,0.100,0.000,3,1,52,3246,0,0,0,0,0.00,0.00,-0.121,-0.658,9.984,-0.671,0.427,0.366,28.73,7.71,0.00,50.0,0.0,1,1,1,1
7411334,1,1,1,0.008,-0.050,0.100,0.000,3,1,52,3246,0,0,0,0,0.00,0.00,-0.123,-0.659,9.975,-0.793,0.488,0.427,28.71,7.73,0.00,49.2,0.0,1,1,1,1
7421342,1,1,1,0.008,-0.050,0.100,0.000,3,1,52,3246,0,0,0,0,0.00,0.00,-0.130,-0.673,9.989,-0.854,0.549,0.427,28.71,7.71,0.00,50.2,0.0,1,1,1,1
7431342,1,1,1,0.008,-0.050,0.100,0.000,3,1,52,3246,0,0,0,0,0.00,0.00,-0.124,-0.664,9.981,-0.732,0.488,0.427,28.71,7.70,0.00,50.8,0.0,1,1,1,1
7441342,1,1,1,0.008,-0.050,0.100,0.000,3,1,52,3246,0,0,0,0,0.00,0.00,-0.133,-0.688,9.999,-0.854,0.488,0.366,28.70,7.68,0.00,50.0,0.0,1,1,1,1
7451342,1,1,1,0.008,-0.050,0.100,0.000,3,1,52,3246,0,0,0,0,0.00,0.00,-0.139,-0.681,10.007,-0.793,0.427,0.427,28.71,8.70,0.00,49.8,0.1,1,1,1,1
7461349,1,1,1,0.008,-0.050,0.100,0.000,3,1,52,3246,0,0,0,0,0.00,0.00,-0.117,-0.681,10.019,-0.732,0.488,0.427,28.71,7.73,0.00,49.2,0.0,1,1,1,1
7471357,1,1,1,0.008,-0.050,0.100,0.000,3,1,52,3246,0,0,0,0,0.00,0.00,-0.126,-0.660,10.004,-0.671,0.488,0.427,28.73,7.72,0.00,49.2,0.0,1,1,1,1
7481364,1,1,1,0.008,-0.050,0.100,0.000,3,1,52,3246,0,0,0,0,0.00,0.00,-0.127,-0.683,9.980,-0.732,0.488,0.488,28.73,7.73,0.00,50.0,0.2,1,1,1,1
7491373,1,1,1,0.008,-0.050,0.100,0.000,3,1,52,3246,0,0,0,0,0.00,0.00,-0.110,-0.690,10.002,-0.793,0.366,0.488,28.73,7.69,0.00,49.2,0.0,1,1,1,1
7501373,1,1,1,0.008,-0.050,0.100,0.000,3,1,52,3246,0,0,0,0,0.00,0.00,-0.120,-0.666,9.990,-0.732,0.488,0.427,28.69,7.69,0.00,49.5,0.0,1,1,1,1
7511379,1,1,1,0.011,-0.075,0.150,0.000,3,1,52,3246,0,0,0,0,0.00,0.00,-0.120,-0.663,9.973,-0.854,0.488,0.427,28.72,7.70,0.00,50.8,0.0,1,1,1,1
7521379,1,1,1,0.011,-0.075,0.150,0.000,3,1,52,3246,0,0,0,0,0.00,0.00,-0.131,-0.667,9.989,-0.793,0.427,0.427,28.75,7.70,0.00,54.5,0.0,1,1,1,1
7531388,1,1,1,0.011,-0.075,0.150,0.000,3,1,52,3246,0,0,0,0,0.00,0.00,-0.143,-0.667,9.996,-0.732,0.366,0.549,28.75,7.71,0.00,55.3,0.2,1,1,1,1
7541394,1,1,1,0.011,-0.075,0.150,0.000,3,1,52,3246,0,0,0,0,0.00,0.00,-0.130,-0.678,9.989,-0.793,0.305,0.549,28.71,7.94,0.00,54.0,0.0,1,1,1,1
7551394,1,1,1,0.011,-0.075,0.150,0.000,3,1,52,3246,0,0,0,0,0.00,0.00,-0.119,-0.669,9.993,-0.854,0.427,0.549,28.75,7.64,0.00,53.7,0.0,1,1,1,1
7561403,1,1,1,0.011,-0.075,0.150,0.000,3,1,52,3246,0,0,0,0,0.00,0.00,-0.114,-0.664,9.986,-0.793,0.427,0.427,28.68,7.71,0.00,53.5,0.0,1,1,1,1
7571403,1,1,1,0.011,-0.075,0.150,0.000,3,1,52,3246,0,0,0,0,0.00,0.00,-0.132,-0.682,9.980,-0.732,0.427,0.549,28.76,7.73,0.00,54.0,0.0,1,1,1,1
7581403,1,1,1,0.011,-0.075,0.150,0.000,3,1,52,3246,0,0,0,0,0.00,0.00,-0.134,-0.682,10.000,-0.732,0.488,0.488,28.72,7.73,0.00,55.3,0.2,1,1,1,1
7591403,1,1,1,0.011,-0.075,0.150,0.000,3,1,52,3246,0,0,0,0,0.00,0.00,-0.120,-0.673,9.981,-0.732,0.488,0.427,28.70,7.70,0.00,55.5,0.0,1,1,1,1
7601407,1,1,1,0.011,-0.075,0.150,0.000,3,1,52,3246,0,0,0,0,0.00,0.00,-0.123,-0.666,10.001,-0.793,0.488,0.366,28.75,7.73,0.00,54.0,0.0,1,1,1,1
7611418,1,1,1,0.011,-0.075,0.150,0.000,3,1,52,3246,0,0,0,0,0.00,0.00,-0.135,-0.661,9.987,-0.854,0.427,0.488,28.71,7.71,0.00,53.5,0.2,1,1,1,1
7621425,1,1,1,0.011,-0.075,0.150,0.000,3,1,52,3246,0,0,0,0,0.00,0.00,-0.127,-0.656,10.004,-0.793,0.427,0.427,28.73,7.70,0.00,53.5,0.1,1,1,1,1
7631425,1,1,1,0.011,-0.075,0.150,0.000,3,1,52,3246,0,0,0,0,0.00,0.00,-0.119,-0.680,9.977,-0.793,0.427,0.366,28.73,7.71,0.00,53.5,0.1,1,1,1,1
7641425,1,1,1,0.011,-0.075,0.150,0.000,3,1,52,3246,0,0,0,0,0.00,0.00,-0.124,-0.687,9.974,-0.732,0.488,0.549,28.71,7.72,0.00,54.0,0.0,1,1,1,1
7651425,1,1,1,0.011,-0.075,0.150,0.000,3,1,52,3246,0,0,0,0,0.00,0.00,-0.127,-0.690,10.001,-0.732,0.427,0.488,28.68,7.70,0.00,54.2,0.1,1,1,1,1
7661425,1,1,1,0.011,-0.075,0.150,0.000,3,1,52,3246,0,0,0,0,0.00,0.00,-0.129,-0.676,9.998,-0.732,0.427,0.366,28.74,7.73,0.00,54.8,0.1,1,1,1,1
7671425,1,1,1,0.011,-0.075,0.150,0.000,3,1,52,3246,0,0,0,0,0.00,0.00,-0.137,-0.664,9.996,-0.732,0.488,0.366,28.71,7.73,0.00,55.5,0.0,1,1,1,1
7681425,1,1,1,0.011,-0.075,0.150,0.000,3,1,52,3246,0,0,0,0,0.00,0.00,-0.133,-0.681,10.017,-0.732,0.366,0.488,28.68,7.72,0.00,53.5,0.0,1,1,1,1
7691433,1,1,1,0.011,-0.075,0.150,0.000,3,1,52,3246,0,0,0,0,0.00,0.00,-0.140,-0.676,10.003,-0.732,0.427,0.488,28.71,7.71,0.00,53.7,0.1,1,1,1,1
7701440,1,1,1,0.011,-0.075,0.150,0.000,3,1,52,3246,0,0,0,0,0.00,0.00,-0.127,-0.670,9.972,-0.793,0.427,0.488,28.73,7.70,0.00,54.2,0.0,1,1,1,1
7711449,1,1,1,0.011,-0.075,0.150,0.000,3,1,52,3246,0,0,0,0,0.00,0.00,-0.126,-0.674,9.973,-0.854,0.427,0.427,28.76,7.72,0.00,54.5,0.0,1,1,1,1
7721455,1,1,1,0.011,-0.075,0.150,0.000,3,1,52,3246,0,0,0,0,0.00,0.00,-0.127,-0.668,9.995,-0.793,0.488,0.427,28.72,7.71,0.00,54.5,0.0,1,1,1,1
7731464,1,1,1,0.011,-0.075,0.150,0.000,3,1,52,3246,0,0,0,0,0.00,0.00,-0.119,-0.670,9.993,-0.793,0.488,0.488,28.71,7.72,0.00,54.2,0.0,1,1,1,1
7741470,1,1,1,0.011,-0.075,0.150,0.000,3,1,52,3246,0,0,0,0,0.00,0.00,-0.126,-0.664,9.953,-0.854,0.488,0.549,28.71,7.71,0.00,54.0,0.0,1,1,1,1
7751479,1,1,1,0.011,-0.075,0.150,0.000,3,1,52,3246,0,0,0,0,0.00,0.00,-0.098,-0.666,10.017,-0.793,0.427,0.488,28.74,7.71,0.00,53.7,0.0,1,1,1,1
7761486,1,1,1,0.011,-0.075,0.150,0.000,3,1,52,3246,0,0,0,0,0.00,0.00,-0.135,-0.674,9.987,-0.671,0.427,0.488,28.72,7.70,0.00,53.2,0.0,1,1,1,1
7771494,1,1,1,0.011,-0.075,0.150,0.000,3,1,52,3246,0,0,0,0,0.00,0.00,-0.142,-0.685,9.984,-0.793,0.488,0.427,28.70,8.71,0.00,54.0,0.0,1,1,1,1
7781501,1,1,1,0.011,-0.075,0.150,0.000,3,1,52,3246,0,0,0,0,0.00,0.00,-0.133,-0.688,9.991,-0.732,0.427,0.427,28.73,7.73,0.00,54.2,0.0,1,1,1,1
7791501,1,1,1,0.011,-0.075,0.150,0.000,3,1,52,3246,0,0,0,0,0.00,0.00,-0.119,-0.668,9.978,-0.793,0.427,0.488,28.73,7.74,0.00,54.5,0.0,1,1,1,1
7801509,1,1,1,0.011,-0.075,0.150,0.000,3,1,52,3246,0,0,0,0,0.00,0.00,-0.129,-0.675,9.986,-0.854,0.488,0.427,28.73,7.69,0.00,54.8,0.0,1,1,1,1
7811516,1,1,1,0.011,-0.075,0.150,0.000,3,1,52,3246,0,0,0,0,0.00,0.00,-0.130,-0.675,10.008,-0.793,0.488,0.427,28.74,7.71,0.00,54.2,0.1,1,1,1,1
7821524,1,1,1,0.011,-0.075,0.150,0.000,3,1,52,3246,0,0,0,0,0.00,0.00,-0.127,-0.669,9.993,-0.793,0.427,0.427,28.72,7.69,0.00,54.2,0.0,1,1,1,1
7831531,1,1,1,0.011,-0.075,0.150,0.000,3,1,52,3246,0,0,0,0,0.00,0.00,-0.132,-0.658,9.974,-0.854,0.488,0.427,28.70,7.69,0.00,54.0,0.1,1,1,1,1
7841540,1,1,1,0.011,-0.075,0.150,0.000,3,1,52,3246,0,0,0,0,0.00,0.00,-0.121,-0.660,9.989,-0.732,0.488,0.488,28.74,7.70,0.00,54.2,0.1,1,1,1,1
7851546,1,1,1,0.011,-0.075,0.150,0.000,3,1,52,3246,0,0,0,0,0.00,0.00,-0.113,-0.671,9.972,-0.732,0.488,0.488,28.70,7.74,0.00,54.0,0.0,1,1,1,1
7861555,1,1,1,0.011,-0.075,0.150,0.000,3,1,52,3246,0,0,0,0,0.00,0.00,-0.127,-0.682,9.987,-0.854,0.427,0.427,28.74,7.72,0.00,55.0,0.0,1,1,1,1
7871555,1,1,1,0.011,-0.075,0.150,0.000,3,1,52,3246,0,0,0,0,0.00,0.00,-0.124,-0.664,9.987,-0.793,0.427,0.427,28.76,7.70,0.00,55.0,0.1,1,1,1,1
7881561,1,1,1,0.011,-0.075,0.150,0.000,3,1,52,3246,0,0,0,0,0.00,0.00,-0.140,-0.673,9.975,-0.915,0.427,0.366,28.75,7.70,0.00,54.2,0.3,1,1,1,1
7891562,1,1,1,0.011,-0.075,0.150,0.000,3,1,52,3246,0,0,0,0,0.00,0.00,-0.119,-0.669,9.989,-0.732,0.427,0.488,28.72,7.71,0.00,54.2,0.0,1,1,1,1
7901576,1,1,1,0.011,-0.075,0.150,0.000,3,1,52,3246,0,0,0,0,0.00,0.00,-0.124,-0.664,9.995,-0.732,0.488,0.427,28.71,7.72,0.00,53.2,0.0,1,1,1,1
7911585,1,1,1,0.011,-0.075,0.150,0.000,3,1,52,3246,0,0,0,0,0.00,0.00,-0.116,-0.670,10.017,-0.854,0.427,0.488,28.74,7.72,0.00,53.7,0.1,1,1,1,1
7921592,1,1,1,0.011,-0.075,0.150,0.000,3,1,52,3246,0,0,0,0,0.00,0.00,-0.127,-0.687,9.980,-0.793,0.427,0.427,28.73,7.72,0.00,53.2,0.0,1,1,1,1
7931592,1,1,1,0.011,-0.075,0.150,0.000,3,1,52,3246,0,0,0,0,0.00,0.00,-0.118,-0.665,9.963,-0.732,0.427,0.488,28.73,7.68,0.00,53.5,0.0,1,1,1,1
7941600,1,1,1,0.011,-0.075,0.150,0.000,3,1,52,3246,0,0,0,0,0.00,0.00,-0.139,-0.674,10.002,-0.732,0.427,0.488,28.74,8.02,0.00,54.2,0.0,1,1,1,1
7951600,1,1,1,0.011,-0.075,0.150,0.000,3,1,52,3246,0,0,0,0,0.00,0.00,-0.127,-0.667,10.028,-0.793,0.427,0.488,28.74,7.73,0.00,54.5,0.1,1,1,1,1
7961607,1,1,1,0.011,-0.075,0.150,0.000,3,1,52,3246,0,0,0,0,0.00,0.00,-0.119,-0.664,9.986,-0.854,0.488,0.427,28.72,7.73,0.00,55.0,0.0,1,1,1,1
7971607,1,1,1,0.011,-0.075,0.150,0.000,3,1,52,3246,0,0,0,0,0.00,0.00,-0.132,-0.676,9.984,-0.854,0.488,0.366,28.72,7.73,0.00,54.2,0.0,1,1,1,1
7981607,1,1,1,0.011,-0.075,0.150,0.000,3,1,52,3246,0,0,0,0,0.00,0.00,-0.129,-0.679,9.992,-0.732,0.488,0.427,28.75,7.70,0.00,53.7,0.3,1,1,1,1
7991607,1,1,1,0.011,-0.075,0.150,0.000,3,1,52,3246,0,0,0,0,0.00,0.00,-0.118,-0.672,9.996,-0.732,0.427,0.427,28.69,7.71,0.00,53.7,0.0,1,1,1,1
8001615,1,1,1,0.011,-0.075,0.150,0.000,3,1,52,3246,0,0,0,0,0.00,0.00,-0.132,-0.645,9.988,-0.854,0.427,0.427,28.76,7.69,0.00,54.5,0.0,1,1,1,1
8011615,1,1,1,0.011,-0.075,0.150,0.000,3,1,52,3246,0,0,0,0,0.00,0.00,-0.129,-0.667,9.972,-0.854,0.488,0.427,28.72,7.69,0.00,54.5,0.0,1,1,1,1
8021622,1,1,1,0.011,-0.075,0.150,0.000,3,1,52,3246,0,0,0,0,0.00,0.00,-0.135,-0.673,9.981,-0.854,0.488,0.427,28.74,7.70,0.00,55.3,0.1,1,1,1,1
8031631,1,1,1,0.011,-0.075,0.150,0.000,3,1,52,3246,0,0,0,0,0.00,0.00,-0.129,-0.672,9.995,-0.854,0.366,0.488,28.73,7.72,0.00,54.5,0.0,1,1,1,1
8041631,1,1,1,0.011,-0.075,0.150,0.000,3,1,52,3246,0,0,0,0,0.00,0.00,-0.119,-0.687,10.003,-0.854,0.427,0.488,28.76,7.73,0.00,53.7,0.0,1,1,1,1
8051631,1,1,1,0.011,-0.075,0.150,0.000,3,1,52,3246,0,0,0,0,0.00,0.00,-0.122,-0.678,9.989,-0.854,0.427,0.488,28.71,7.73,0.00,55.0,0.0,1,1,1,1
8061631,1,1,1,0.011,-0.075,0.150,0.000,3,1,52,3246,0,0,0,0,0.00,0.00,-0.126,-0.663,10.001,-0.732,0.427,0.427,28.78,7.70,0.00,54.0,0.1,1,1,1,1
8071637,1,1,1,0.011,-0.075,0.150,0.000,3,1,52,3246,0,0,0,0,0.00,0.00,-0.129,-0.670,9.994,-0.793,0.427,0.427,28.70,7.70,0.00,54.0,0.1,1,1,1,1
8081646,1,1,1,0.011,-0.075,0.150,0.000,3,1,52,3246,0,0,0,0,0.00,0.00,-0.126,-0.680,10.011,-0.793,0.366,0.427,28.70,7.55,0.00,53.7,0.0,1,1,1,1
8091646,1,1,1,0.011,-0.075,0.150,0.000,3,1,52,3246,0,0,0,0,0.00,0.00,-0.136,-0.676,9.987,-0.732,0.488,0.427,28.72,8.55,0.00,53.7,0.1,1,1,1,1
8101652,1,1,1,0.011,-0.075,0.150,0.000,3,1,52,3246,0,0,0,0,0.00,0.00,-0.144,-0.660,9.986,-0.732,0.427,0.427,28.68,7.71,0.00,55.0,0.1,1,1,1,1
8111652,1,1,1,0.011,-0.075,0.150,0.000,3,1,52,3246,0,0,0,0,0.00,0.00,-0.131,-0.679,10.006,-0.671,0.488,0.366,28.73,7.70,0.00,55.3,0.0,1,1,1,1
8121661,1,1,1,0.011,-0.075,0.150,0.000,3,1,52,3246,0,0,0,0,0.00,0.00,-0.129,-0.666,10.005,-0.732,0.488,0.427,28.71,7.70,0.00,53.2,0.0,1,1,1,1
8131661,1,1,1,0.011,-0.075,0.150,0.000,3,1,52,3246,0,0,0,0,0.00,0.00,-0.121,-0.666,9.984,-0.793,0.427,0.488,28.73,7.73,0.00,53.7,0.1,1,1,1,1
8141661,1,1,1,0.011,-0.075,0.150,0.000,3,1,52,3246,0,0,0,0,0.00,0.00,-0.117,-0.678,9.978,-0.854,0.488,0.488,28.73,7.73,0.00,54.2,0.0,1,1,1,1
8151667,1,1,1,0.011,-0.075,0.150,0.000,3,1,52,3246,0,0,0,0,0.00,0.00,-0.132,-0.667,9.994,-0.793,0.427,0.427,28.71,7.73,0.00,53.5,0.1,1,1,1,1
8161667,1,1,1,0.011,-0.075,0.150,0.000,3,1,52,3246,0,0,0,0,0.00,0.00,-0.126,-0.694,9.991,-0.793,0.427,0.366,28.78,7.71,0.00,54.8,0.1,1,1,1,1
8171676,1,1,1,0.011,-0.075,0.150,0.000,3,1,52,3246,0,0,0,0,0.00,0.00,-0.150,-0.683,9.987,-0.793,0.488,0.366,28.70,7.71,0.00,54.0,0.0,1,1,1,1
8181687,1,1,1,0.011,-0.075,0.150,0.000,3,1,52,3246,0,0,0,0,0.00,0.00,-0.126,-0.669,9.994,-0.793,0.427,0.427,28.72,7.71,0.00,54.0,0.1,1,1,1,1
8191698,1,1,1,0.011,-0.075,0.150,0.000,3,1,52,3246,0,0,0,0,0.00,0.00,-0.127,-0.674,9.987,-0.793,0.427,0.488,28.76,7.71,0.00,54.2,0.0,1,1,1,1
8201706,1,1,1,0.011,-0.075,0.150,0.000,3,1,52,3246,0,0,0,0,0.00,0.00,-0.142,-0.673,9.991,-0.793,0.488,0.488,28.68,7.73,0.00,53.7,0.0,1,1,1,1
8211713,1,1,1,0.011,-0.075,0.150,0.000,3,1,52,3246,0,0,0,0,0.00,0.00,-0.133,-0.679,9.987,-0.732,0.488,0.366,28.66,7.71,0.00,53.7,0.0,1,1,1,1
8221713,1,1,1,0.011,-0.075,0.150,0.000,3,1,52,3246,0,0,0,0,0.00,0.00,-0.133,-0.675,10.002,-0.793,0.427,0.488,28.74,7.71,0.00,54.0,0.1,1,1,1,1
8231722,1,1,1,0.011,-0.075,0.150,0.000,3,1,52,3246,0,0,0,0,0.00,0.00,-0.147,-0.684,9.990,-0.793,0.427,0.427,28.75,7.73,0.00,54.5,0.0,1,1,1,1
8241722,1,1,1,0.011,-0.075,0.150,0.000,3,1,52,3246,0,0,0,0,0.00,0.00,-0.145,-0.670,10.001,-0.732,0.427,0.427,28.67,7.70,0.00,55.5,0.3,1,1,1,1
8251728,1,1,1,0.011,-0.075,0.150,0.000,3,1,52,3246,0,0,0,0,0.00,0.00,-0.126,-0.674,9.991,-0.671,0.488,0.488,28.70,7.71,0.00,54.0,0.0,1,1,1,1
8261728,1,1,1,0.011,-0.075,0.150,0.000,3,1,52,3246,0,0,0,0,0.00,0.00,-0.122,-0.673,9.995,-0.793,0.488,0.427,28.74,7.73,0.00,53.5,0.0,1,1,1,1
8271728,1,1,1,0.011,-0.075,0.150,0.000,3,1,52,3246,0,0,0,0,0.00,0.00,-0.119,-0.671,9.995,-0.793,0.488,0.427,28.73,7.71,0.00,53.5,0.0,1,1,1,1
8281728,1,1,1,0.011,-0.075,0.150,0.000,3,1,52,3246,0,0,0,0,0.00,0.00,-0.124,-0.652,9.990,-0.732,0.488,0.488,28.73,7.70,0.00,54.5,0.0,1,1,1,1
8291737,1,1,1,0.011,-0.075,0.150,0.000,3,1,52,3246,0,0,0,0,0.00,0.00,-0.113,-0.676,10.010,-0.732,0.427,0.427,28.73,7.70,0.00,54.2,0.0,1,1,1,1
8301743,1,1,1,0.011,-0.075,0.150,0.000,3,1,52,3246,0,0,0,0,0.00,0.00,-0.114,-0.670,9.987,-0.793,0.366,0.427,28.73,7.69,0.00,54.2,0.0,1,1,1,1
8311752,1,1,1,0.011,-0.075,0.150,0.000,3,1,52,3246,0,0,0,0,0.00,0.00,-0.127,-0.661,9.993,-0.854,0.366,0.427,28.74,7.70,0.00,54.0,0.0,1,1,1,1
8321752,1,1,1,0.011,-0.075,0.150,0.000,3,1,52,3246,0,0,0,0,0.00,0.00,-0.127,-0.666,9.975,-0.732,0.427,0.488,28.75,7.71,0.00,54.5,0.0,1,1,1,1
8331752,1,1,1,0.011,-0.075,0.150,0.000,3,1,52,3246,0,0,0,0,0.00,0.00,-0.144,-0.691,9.995,-0.793,0.488,0.427,28.74,7.74,0.00,53.7,0.0,1,1,1,1
8341752,1,1,1,0.011,-0.075,0.150,0.000,3,1,52,3246,0,0,0,0,0.00,0.00,-0.119,-0.670,10.005,-0.793,0.427,0.366,28.71,7.73,0.00,53.5,0.0,1,1,1,1
8351752,1,1,1,0.011,-0.075,0.150,0.000,3,1,52,3246,0,0,0,0,0.00,0.00,-0.130,-0.671,9.981,-0.732,0.366,0.427,28.73,7.74,0.00,54.0,0.0,1,1,1,1
8361752,1,1,1,0.011,-0.075,0.150,0.000,3,1,52,3246,0,0,0,0,0.00,0.00,-0.135,-0.666,9.990,-0.732,0.488,0.427,28.74,7.72,0.00,53.7,0.0,1,1,1,1
8371752,1,1,1,0.011,-0.075,0.150,0.000,3,1,52,3246,0,0,0,0,0.00,0.00,-0.127,-0.681,9.998,-0.854,0.366,0.366,28.73,7.70,0.00,54.5,0.0,1,1,1,1
8381752,1,1,1,0.011,-0.075,0.150,0.000,3,1,52,3246,0,0,0,0,0.00,0.00,-0.126,-0.664,9.985,-0.793,0.427,0.427,28.73,7.73,0.00,53.7,0.1,1,1,1,1
8391752,1,1,1,0.011,-0.075,0.150,0.000,3,1,52,3246,0,0,0,0,0.00,0.00,-0.124,-0.656,9.996,-0.793,0.488,0.427,28.68,7.73,0.00,54.8,0.0,1,1,1,1
8401752,1,1,1,0.011,-0.075,0.150,0.000,3,1,52,3246,0,0,0,0,0.00,0.00,-0.097,-0.679,9.987,-0.732,0.488,0.427,28.71,7.74,0.00,54.2,0.0,1,1,1,1
8411752,1,1,1,0.011,-0.075,0.150,0.000,3,1,52,3246,0,0,0,0,0.00,0.00,-0.099,-0.673,9.974,-0.732,0.549,0.488,28.74,7.70,0.00,53.7,0.0,1,1,1,1
8421759,1,1,1,0.011,-0.075,0.150,0.000,3,1,52,3246,0,0,0,0,0.00,0.00,-0.130,-0.685,9.996,-0.793,0.427,0.427,28.76,7.70,0.00,54.0,0.0,1,1,1,1
8431759,1,1,1,0.011,-0.075,0.150,0.000,3,1,52,3246,0,0,0,0,0.00,0.00,-0.132,-0.668,10.011,-0.793,0.427,0.427,28.69,7.70,0.00,54.8,0.0,1,1,1,1
8441759,1,1,1,0.011,-0.075,0.150,0.000,3,1,52,3246,0,0,0,0,0.00,0.00,-0.124,-0.681,10.014,-0.915,0.427,0.427,28.74,7.72,0.00,54.0,0.0,1,1,1,1
8451759,1,1,1,0.011,-0.075,0.150,0.000,3,1,52,3246,0,0,0,0,0.00,0.00,-0.123,-0.675,10.022,-0.854,0.427,0.488,28.68,7.73,0.00,54.0,0.0,1,1,1,1
8461774,1,1,1,0.011,-0.075,0.150,0.000,3,1,52,3246,0,0,0,0,0.00,0.00,-0.126,-0.652,10.004,-0.732,0.366,0.427,28.74,7.72,0.00,53.5,0.3,1,1,1,1
8471774,1,1,1,0.011,-0.075,0.150,0.000,3,1,52,3246,0,0,0,0,0.00,0.00,-0.100,-0.666,9.963,-0.671,0.366,0.366,28.74,7.70,0.00,54.2,0.0,1,1,1,1
8481783,1,1,1,0.011,-0.075,0.150,0.000,3,1,52,3246,0,0,0,0,0.00,0.00,-0.108,-0.661,9.990,-0.671,0.427,0.488,28.73,7.73,0.00,54.8,0.0,1,1,1,1
8491783,1,1,1,0.011,-0.075,0.150,0.000,3,1,52,3246,0,0,0,0,0.00,0.00,-0.142,-0.664,10.011,-0.915,0.427,0.488,28.73,7.75,0.00,53.7,0.0,1,1,1,1
8501791,1,1,1,0.011,-0.075,0.150,0.000,3,1,52,3246,0,0,0,0,0.00,0.00,-0.123,-0.672,10.015,-0.793,0.366,0.427,28.71,7.71,0.00,54.5,0.0,1,1,1,1
8511791,1,1,1,0.011,-0.075,0.150,0.000,3,1,52,3246,0,0,0,0,0.00,0.00,-0.116,-0.676,10.004,-0.732,0.488,0.488,28.73,7.75,0.00,53.7,0.1,1,1,1,1
8521791,1,1,1,0.011,-0.075,0.150,0.000,3,1,52,3246,0,0,0,0,0.00,0.00,-0.100,-0.670,9.997,-0.732,0.488,0.427,28.72,7.71,0.00,55.3,0.0,1,1,1,1
8531798,1,1,1,0.011,-0.075,0.150,0.000,3,1,52,3246,0,0,0,0,0.00,0.00,-0.120,-0.650,9.977,-0.854,0.427,0.366,28.74,7.70,0.00,54.8,0.0,1,1,1,1
8541798,1,1,1,0.011,-0.075,0.150,0.000,3,1,52,3246,0,0,0,0,0.00,0.00,-0.132,-0.676,9.987,-0.915,0.366,0.488,28.72,7.65,0.00,53.7,0.0,1,1,1,1
8551798,1,1,1,0.011,-0.075,0.150,0.000,3,1,52,3246,0,0,0,0,0.00,0.00,-0.117,-0.682,9.989,-0.854,0.427,0.427,28.72,7.70,0.00,54.2,0.0,1,1,1,1
8561798,1,1,1,0.011,-0.075,0.150,0.000,3,1,52,3246,0,0,0,0,0.00,0.00,-0.131,-0.670,9.995,-0.732,0.427,0.488,28.66,7.72,0.00,53.7,0.0,1,1,1,1
8571798,1,1,1,0.011,-0.075,0.150,0.000,3,1,52,3246,0,0,0,0,0.00,0.00,-0.136,-0.652,10.004,-0.793,0.488,0.488,28.72,7.74,0.00,54.8,0.0,1,1,1,1
8581798,1,1,1,0.011,-0.075,0.150,0.000,3,1,52,3246,0,0,0,0,0.00,0.00,-0.132,-0.639,9.984,-0.793,0.488,0.427,28.71,7.66,0.00,54.5,0.1,1,1,1,1
8591806,1,1,1,0.011,-0.075,0.150,0.000,3,1,52,3246,0,0,0,0,0.00,0.00,-0.118,-0.650,10.005,-0.793,0.488,0.488,28.68,7.73,0.00,55.0,0.0,1,1,1,1
8601810,1,1,1,0.011,-0.075,0.150,0.000,3,1,52,3246,0,0,0,0,0.00,0.00,-0.111,-0.666,9.990,-0.732,0.488,0.549,28.72,7.70,0.00,53.7,0.0,1,1,1,1
8611822,1,1,1,0.011,-0.075,0.150,0.000,3,1,52,3246,0,0,0,0,0.00,0.00,-0.138,-0.678,9.981,-0.793,0.427,0.488,28.74,7.73,0.00,53.5,0.0,1,1,1,1
8621828,1,1,1,0.011,-0.075,0.150,0.000,3,1,52,3246,0,0,0,0,0.00,0.00,-0.124,-0.664,9.981,-0.854,0.427,0.427,28.71,7.70,0.00,54.0,0.0,1,1,1,1
8631828,1,1,1,0.011,-0.075,0.150,0.000,3,1,52,3246,0,0,0,0,0.00,0.00,-0.111,-0.666,9.974,-0.793,0.488,0.427,28.74,7.70,0.00,54.5,0.0,1,1,1,1
8641828,1,1,1,0.011,-0.075,0.150,0.000,3,1,52,3246,0,0,0,0,0.00,0.00,-0.127,-0.661,9.975,-0.793,0.366,0.366,28.74,7.72,0.00,54.0,0.0,1,1,1,1
8651837,1,1,1,0.011,-0.075,0.150,0.000,3,1,52,3246,0,0,0,0,0.00,0.00,-0.120,-0.658,9.991,-0.854,0.488,0.366,28.75,7.86,0.00,54.8,0.0,1,1,1,1
8661844,1,1,1,0.011,-0.075,0.150,0.000,3,1,52,3246,0,0,0,0,0.00,0.00,-0.116,-0.672,10.010,-0.793,0.427,0.427,28.72,7.72,0.00,54.0,0.2,1,1,1,1
8671852,1,1,1,0.011,-0.075,0.150,0.000,3,1,52,3246,0,0,0,0,0.00,0.00,-0.120,-0.673,9.995,-0.671,0.488,0.488,28.78,7.71,0.00,54.8,0.1,1,1,1,1
8681859,1,1,1,0.011,-0.075,0.150,0.000,3,1,52,3246,0,0,0,0,0.00,0.00,-0.129,-0.672,9.983,-0.793,0.427,0.488,28.75,7.73,0.00,54.5,0.0,1,1,1,1
8691867,1,1,1,0.011,-0.075,0.150,0.000,3,1,52,3246,0,0,0,0,0.00,0.00,-0.126,-0.680,9.990,-0.854,0.427,0.488,28.74,7.73,0.00,54.0,0.1,1,1,1,1
8701867,1,1,1,0.011,-0.075,0.150,0.000,3,1,52,3246,0,0,0,0,0.00,0.00,-0.132,-0.665,9.985,-0.671,0.427,0.488,28.73,7.71,0.00,53.5,0.0,1,1,1,1
8711874,1,1,1,0.015,-0.100,0.200,0.000,3,1,52,3246,0,0,0,0,0.00,0.00,-0.129,-0.673,9.992,-0.671,0.427,0.427,28.70,7.69,0.00,54.8,0.0,1,1,1,1
8721874,1,1,1,0.015,-0.100,0.200,0.000,3,1,52,3246,0,0,0,0,0.00,0.00,-0.145,-0.667,9.987,-0.793,0.427,0.488,28.71,7.73,0.00,60.5,0.0,1,1,1,1
8731882,1,1,1,0.015,-0.100,0.200,0.000,3,1,52,3246,0,0,0,0,0.00,0.00,-0.135,-0.688,10.008,-0.854,0.488,0.488,28.70,7.73,0.00,60.2,0.0,1,1,1,1
8741882,1,1,1,0.015,-0.100,0.200,0.000,3,1,52,3246,0,0,0,0,0.00,0.00,-0.135,-0.668,9.987,-0.793,0.488,0.427,28.70,7.70,0.00,60.0,0.2,1,1,1,1
8751889,1,1,1,0.015,-0.100,0.200,0.000,3,1,52,3246,0,0,0,0,0.00,0.00,-0.136,-0.676,10.007,-0.854,0.488,0.427,28.70,7.70,0.00,59.0,0.0,1,1,1,1
8761889,1,1,1,0.015,-0.100,0.200,0.000,3,1,52,3246,0,0,0,0,0.00,0.00,-0.107,-0.669,9.998,-0.793,0.488,0.488,28.72,7.70,0.00,60.0,0.0,1,1,1,1
8771898,1,1,1,0.015,-0.100,0.200,0.000,3,1,52,3246,0,0,0,0,0.00,0.00,-0.102,-0.672,9.985,-0.793,0.427,0.427,28.72,7.71,0.00,60.0,0.0,1,1,1,1
8781904,1,1,1,0.015,-0.100,0.200,0.000,3,1,52,3246,0,0,0,0,0.00,0.00,-0.132,-0.677,9.981,-0.793,0.427,0.427,28.73,7.74,0.00,59.7,0.0,1,1,1,1
8791913,1,1,1,0.015,-0.100,0.200,0.000,3,1,52,3246,0,0,0,0,0.00,0.00,-0.141,-0.661,9.999,-0.732,0.427,0.427,28.71,7.70,0.00,59.7,0.0,1,1,1,1
8801919,1,1,1,0.015,-0.100,0.200,0.000,3,1,52,3246,0,0,0,0,0.00,0.00,-0.124,-0.681,9.993,-0.793,0.488,0.427,28.75,7.70,0.00,60.2,0.0,1,1,1,1
8811928,1,1,1,0.015,-0.100,0.200,0.000,3,1,52,3246,0,0,0,0,0.00,0.00,-0.116,-0.684,9.966,-0.732,0.488,0.488,28.75,7.69,0.00,60.0,0.0,1,1,1,1
8821935,1,1,1,0.015,-0.100,0.200,0.000,3,1,52,3246,0,0,0,0,0.00,0.00,-0.139,-0.671,9.996,-0.671,0.488,0.427,28.73,7.72,0.00,60.5,0.0,1,1,1,1
8831935,1,1,1,0.015,-0.100,0.200,0.000,3,1,52,3246,0,0,0,0,0.00,0.00,-0.130,-0.665,10.026,-0.793,0.488,0.366,28.71,7.71,0.00,59.5,0.0,1,1,1,1
8841935,1,1,1,0.015,-0.100,0.200,0.000,3,1,52,3246,0,0,0,0,0.00,0.00,-0.133,-0.673,10.010,-0.793,0.427,0.427,28.71,7.71,0.00,58.8,0.0,1,1,1,1
8851943,1,1,1,0.015,-0.100,0.200,0.000,3,1,52,3246,0,0,0,0,0.00,0.00,-0.122,-0.669,9.994,-0.793,0.427,0.427,28.71,7.73,0.00,59.5,0.1,1,1,1,1
8861950,1,1,1,0.015,-0.100,0.200,0.000,3,1,52,3246,0,0,0,0,0.00,0.00,-0.105,-0.677,9.999,-0.732,0.488,0.427,28.75,7.72,0.00,60.0,0.0,1,1,1,1
8871950,1,1,1,0.015,-0.100,0.200,0.000,3,1,52,3246,0,0,0,0,0.00,0.00,-0.138,-0.657,9.994,-0.732,0.427,0.427,28.69,7.74,0.00,60.7,0.0,1,1,1,1
8881950,1,1,1,0.015,-0.100,0.200,0.000,3,1,52,3246,0,0,0,0,0.00,0.00,-0.148,-0.675,9.990,-0.732,0.366,0.488,28.73,6.92,0.00,59.7,0.0,1,1,1,1
8891963,1,1,1,0.015,-0.100,0.200,0.000,3,1,52,3246,0,0,0,0,0.00,0.00,-0.135,-0.674,9.984,-0.793,0.366,0.427,28.76,7.72,0.00,59.5,0.0,1,1,1,1
8901965,1,1,1,0.015,-0.100,0.200,0.000,3,1,52,3246,0,0,0,0,0.00,0.00,-0.144,-0.664,9.992,-0.854,0.427,0.427,28.72,7.73,0.00,60.5,0.1,1,1,1,1
8911973,1,1,1,0.015,-0.100,0.200,0.000,3,1,52,3246,0,0,0,0,0.00,0.00,-0.145,-0.674,9.995,-0.671,0.427,0.427,28.73,7.70,0.00,59.2,0.0,1,1,1,1
8921973,1,1,1,0.015,-0.100,0.200,0.000,3,1,52,3246,0,0,0,0,0.00,0.00,-0.119,-0.673,9.989,-0.610,0.366,0.427,28.75,7.71,0.00,59.5,0.0,1,1,1,1
8931980,1,1,1,0.015,-0.100,0.200,0.000,3,1,52,3246,0,0,0,0,0.00,0.00,-0.122,-0.675,10.001,-0.732,0.427,0.427,28.70,7.71,0.00,61.0,0.0,1,1,1,1
8941980,1,1,1,0.015,-0.100,0.200,0.000,3,1,52,3246,0,0,0,0,0.00,0.00,-0.106,-0.641,9.987,-0.854,0.427,0.488,28.73,7.72,0.00,60.0,0.0,1,1,1,1
8951980,1,1,1,0.015,-0.100,0.200,0.000,3,1,52,3246,0,0,0,0,0.00,0.00,-0.127,-0.669,9.984,-0.854,0.427,0.488,28.69,7.70,0.00,61.0,0.2,1,1,1,1
8961980,1,1,1,0.015,-0.100,0.200,0.000,3,1,52,3246,0,0,0,0,0.00,0.00,-0.111,-0.670,9.990,-0.732,0.366,0.427,28.75,7.72,0.00,59.2,0.0,1,1,1,1
8971980,1,1,1,0.015,-0.100,0.200,0.000,3,1,52,3246,0,0,0,0,0.00,0.00,-0.129,-0.663,9.983,-0.854,0.427,0.427,28.74,7.70,0.00,59.5,0.1,1,1,1,1
8981989,1,1,1,0.015,-0.100,0.200,0.000,3,1,52,3246,0,0,0,0,0.00,0.00,-0.147,-0.669,9.991,-0.854,0.427,0.427,28.74,7.71,0.00,59.7,0.0,1,1,1,1
8991995,1,1,1,0.015,-0.100,0.200,0.000,3,1,52,3246,0,0,0,0,0.00,0.00,-0.122,-0.667,10.002,-0.793,0.488,0.427,28.73,7.72,0.00,59.5,0.1,1,1,1,1
9002004,1,1,1,0.015,-0.100,0.200,0.000,3,1,52,3246,0,0,0,0,0.00,0.00,-0.136,-0.651,9.974,-0.671,0.488,0.488,28.71,7.69,0.00,60.5,0.0,1,1,1,1
9012004,1,1,1,0.015,-0.100,0.200,0.000,3,1,52,3246,0,0,0,0,0.00,0.00,-0.129,-0.660,9.995,-0.793,0.427,0.488,28.71,7.69,0.00,60.7,0.1,1,1,1,1
9022004,1,1,1,0.015,-0.100,0.200,0.000,3,1,52,3246,0,0,0,0,0.00,0.00,-0.119,-0.675,9.992,-0.793,0.427,0.427,28.67,7.72,0.00,60.0,0.1,1,1,1,1
9032004,1,1,1,0.015,-0.100,0.200,0.000,3,1,52,3246,0,0,0,0,0.00,0.00,-0.123,-0.653,9.983,-0.793,0.427,0.366,28.73,7.70,0.00,59.5,0.0,1,1,1,1
9042004,1,1,1,0.015,-0.100,0.200,0.000,3,1,52,3246,0,0,0,0,0.00,0.00,-0.123,-0.667,9.966,-0.793,0.488,0.427,28.75,7.72,0.00,59.7,0.0,1,1,1,1
9052010,1,1,1,0.015,-0.100,0.200,0.000,3,1,52,3246,0,0,0,0,0.00,0.00,-0.131,-0.675,9.998,-0.793,0.488,0.488,28.75,7.70,0.00,59.7,0.0,1,1,1,1
9062019,1,1,1,0.015,-0.100,0.200,0.000,3,1,52,3246,0,0,0,0,0.00,0.00,-0.125,-0.658,9.999,-0.854,0.427,0.427,28.72,7.71,0.00,58.8,0.0,1,1,1,1
9072026,1,1,1,0.015,-0.100,0.200,0.000,3,1,52,3246,0,0,0,0,0.00,0.00,-0.127,-0.669,10.007,-0.793,0.488,0.427,28.72,7.70,0.00,59.5,0.0,1,1,1,1
9082034,1,1,1,0.015,-0.100,0.200,0.000,3,1,52,3246,0,0,0,0,0.00,0.00,-0.117,-0.664,10.004,-0.732,0.427,0.366,28.75,7.71,0.00,60.7,0.0,1,1,1,1
9092041,1,1,1,0.015,-0.100,0.200,0.000,3,1,52,3246,0,0,0,0,0.00,0.00,-0.122,-0.659,9.979,-0.854,0.427,0.427,28.74,7.70,0.00,60.2,0.2,1,1,1,1
9102041,1,1,1,0.015,-0.100,0.200,0.000,3,1,52,3246,0,0,0,0,0.00,0.00,-0.133,-0.651,10.010,-0.793,0.427,0.488,28.70,7.72,0.00,59.2,0.0,1,1,1,1
9112049,1,1,1,0.015,-0.100,0.200,0.000,3,1,52,3246,0,0,0,0,0.00,0.00,-0.112,-0.648,9.989,-0.793,0.427,0.427,28.69,7.71,0.00,60.2,0.2,1,1,1,1
9122056,1,1,1,0.015,-0.100,0.200,0.000,3,1,52,3246,0,0,0,0,0.00,0.00,-0.123,-0.672,9.982,-0.732,0.427,0.427,28.73,7.74,0.00,59.5,0.0,1,1,1,1
9132056,1,1,1,0.015,-0.100,0.200,0.000,3,1,52,3246,0,0,0,0,0.00,0.00,-0.120,-0.673,9.986,-0.854,0.427,0.427,28.71,7.70,0.00,61.0,0.2,1,1,1,1
9142064,1,1,1,0.015,-0.100,0.200,0.000,3,1,52,3246,0,0,0,0,0.00,0.00,-0.111,-0.666,9.997,-0.854,0.427,0.427,28.72,7.70,0.00,60.2,0.2,1,1,1,1
9152071,1,1,1,0.015,-0.100,0.200,0.000,3,1,52,3246,0,0,0,0,0.00,0.00,-0.126,-0.680,10.010,-0.793,0.488,0.488,28.72,7.70,0.00,60.2,0.2,1,1,1,1
9162071,1,1,1,0.015,-0.100,0.200,0.000,3,1,52,3246,0,0,0,0,0.00,0.00,-0.123,-0.661,10.008,-0.732,0.427,0.488,28.70,7.71,0.00,59.7,0.0,1,1,1,1
9172080,1,1,1,0.015,-0.100,0.200,0.000,3,1,52,3246,0,0,0,0,0.00,0.00,-0.135,-0.653,9.999,-0.732,0.427,0.427,28.72,7.72,0.00,59.7,0.0,1,1,1,1
9182080,1,1,1,0.015,-0.100,0.200,0.000,3,1,52,3246,0,0,0,0,0.00,0.00,-0.127,-0.676,10.011,-0.793,0.488,0.427,28.75,7.69,0.00,60.2,0.0,1,1,1,1
9192086,1,1,1,0.015,-0.100,0.200,0.000,3,1,52,3246,0,0,0,0,0.00,0.00,-0.141,-0.655,10.010,-0.854,0.549,0.366,28.71,7.72,0.00,59.7,0.1,1,1,1,1
9202095,1,1,1,0.015,-0.100,0.200,0.000,3,1,52,3246,0,0,0,0,0.00,0.00,-0.136,-0.654,10.007,-0.854,0.427,0.427,28.74,7.72,0.00,59.5,0.0,1,1,1,1
9212102,1,1,1,0.015,-0.100,0.200,0.000,3,1,52,3246,0,0,0,0,0.00,0.00,-0.127,-0.684,9.981,-0.793,0.488,0.366,28.73,7.70,0.00,60.0,0.0,1,1,1,1
9222110,1,1,1,0.015,-0.100,0.200,0.000,3,1,52,3246,0,0,0,0,0.00,0.00,-0.118,-0.667,9.977,-0.793,0.427,0.427,28.73,7.69,0.00,60.2,0.0,1,1,1,1
9232117,1,1,1,0.015,-0.100,0.200,0.000,3,1,52,3246,0,0,0,0,0.00,0.00,-0.137,-0.655,9.990,-0.854,0.488,0.488,28.71,7.71,0.00,60.5,0.0,1,1,1,1
9242117,1,1,1,0.015,-0.100,0.200,0.000,3,1,52,3246,0,0,0,0,0.00,0.00,-0.135,-0.666,10.008,-0.793,0.427,0.427,28.73,7.70,0.00,60.0,0.1,1,1,1,1
9252125,1,1,1,0.015,-0.100,0.200,0.000,3,1,52,3246,0,0,0,0,0.00,0.00,-0.138,-0.659,10.010,-0.793,0.366,0.427,28.72,7.71,0.00,59.7,0.0,1,1,1,1
9262125,1,1,1,0.015,-0.100,0.200,0.000,3,1,52,3246,0,0,0,0,0.00,0.00,-0.121,-0.676,10.005,-0.854,0.427,0.427,28.70,7.70,0.00,59.5,0.0,1,1,1,1
9272125,1,1,1,0.015,-0.100,0.200,0.000,3,1,52,3246,0,0,0,0,0.00,0.00,-0.140,-0.668,9.978,-0.854,0.427,0.427,28.69,7.71,0.00,60.5,0.0,1,1,1,1
9282125,1,1,1,0.015,-0.100,0.200,0.000,3,1,52,3246,0,0,0,0,0.00,0.00,-0.126,-0.683,9.993,-0.793,0.366,0.488,28.71,7.71,0.00,60.5,0.2,1,1,1,1
9292132,1,1,1,0.015,-0.100,0.200,0.000,3,1,52,3246,0,0,0,0,0.00,0.00,-0.128,-0.687,9.997,-0.671,0.488,0.488,28.69,7.73,0.00,60.0,0.0,1,1,1,1
9302132,1,1,1,0.015,-0.100,0.200,0.000,3,1,52,3246,0,0,0,0,0.00,0.00,-0.148,-0.657,9.980,-0.671,0.549,0.488,28.72,7.69,0.00,59.7,0.0,1,1,1,1
9312132,1,1,1,0.015,-0.100,0.200,0.000,3,1,52,3246,0,0,0,0,0.00,0.00,-0.135,-0.655,9.973,-0.793,0.488,0.427,28.73,7.65,0.00,59.2,0.0,1,1,1,1
9322132,1,1,1,0.015,-0.100,0.200,0.000,3,1,52,3246,0,0,0,0,0.00,0.00,-0.132,-0.655,9.993,-0.793,0.427,0.427,28.73,7.70,0.00,59.0,0.0,1,1,1,1
9332132,1,1,1,0.015,-0.100,0.200,0.000,3,1,52,3246,0,0,0,0,0.00,0.00,-0.135,-0.681,10.004,-0.732,0.488,0.427,28.75,7.73,0.00,59.2,0.0,1,1,1,1
9342132,1,1,1,0.015,-0.100,0.200,0.000,3,1,52,3246,0,0,0,0,0.00,0.00,-0.127,-0.673,9.996,-0.854,0.427,0.427,28.71,7.69,0.00,59.7,0.0,1,1,1,1
9352132,1,1,1,0.015,-0.100,0.200,0.000,3,1,52,3246,0,0,0,0,0.00,0.00,-0.133,-0.666,9.997,-0.854,0.427,0.427,28.78,7.70,0.00,60.7,0.0,1,1,1,1
9362140,1,1,1,0.015,-0.100,0.200,0.000,3,1,52,3246,0,0,0,0,0.00,0.00,-0.132,-0.667,9.986,-0.793,0.488,0.366,28.72,7.71,0.00,60.2,0.0,1,1,1,1
9372147,1,1,1,0.015,-0.100,0.200,0.000,3,1,52,3246,0,0,0,0,0.00,0.00,-0.109,-0.685,9.979,-0.793,0.488,0.488,28.70,7.74,0.00,60.2,0.0,1,1,1,1
9382155,1,1,1,0.015,-0.100,0.200,0.000,3,1,52,3246,0,0,0,0,0.00,0.00,-0.118,-0.666,10.013,-0.732,0.427,0.549,28.73,7.71,0.00,59.7,0.0,1,1,1,1
9392155,1,1,1,0.015,-0.100,0.200,0.000,3,1,52,3246,0,0,0,0,0.00,0.00,-0.134,-0.673,10.004,-0.732,0.488,0.427,28.72,7.72,0.00,59.7,0.0,1,1,1,1
9402162,1,1,1,0.015,-0.100,0.200,0.000,3,1,52,3246,0,0,0,0,0.00,0.00,-0.132,-0.678,9.993,-0.793,0.427,0.427,28.72,7.70,0.00,59.5,0.1,1,1,1,1
9412162,1,1,1,0.015,-0.100,0.200,0.000,3,1,52,3246,0,0,0,0,0.00,0.00,-0.133,-0.692,9.966,-0.671,0.488,0.488,28.73,7.70,0.00,59.7,0.0,1,1,1,1
9422162,1,1,1,0.015,-0.100,0.200,0.000,3,1,52,3246,0,0,0,0,0.00,0.00,-0.125,-0.675,9.981,-0.732,0.427,0.549,28.70,7.69,0.00,60.5,0.0,1,1,1,1
9432162,1,1,1,0.015,-0.100,0.200,0.000,3,1,52,3246,0,0,0,0,0.00,0.00,-0.111,-0.688,9.993,-0.854,0.366,0.488,28.74,7.71,0.00,59.7,0.0,1,1,1,1
9442171,1,1,1,0.015,-0.100,0.200,0.000,3,1,52,3246,0,0,0,0,0.00,0.00,-0.128,-0.686,10.016,-0.732,0.427,0.488,28.76,7.71,0.01,59.7,0.5,1,1,1,1
9452177,1,1,1,0.015,-0.100,0.200,0.000,3,1,52,3246,0,0,0,0,0.00,0.00,-0.136,-0.688,9.989,-0.732,0.427,0.427,28.73,7.71,0.00,59.7,0.0,1,1,1,1
9462177,1,1,1,0.015,-0.100,0.200,0.000,3,1,52,3246,0,0,0,0,0.00,0.00,-0.123,-0.679,9.988,-0.793,0.427,0.549,28.71,7.70,0.00,60.5,0.3,1,1,1,1
9472186,1,1,1,0.015,-0.100,0.200,0.000,3,1,52,3246,0,0,0,0,0.00,0.00,-0.132,-0.675,10.005,-0.732,0.427,0.488,28.72,7.69,0.00,60.0,0.0,1,1,1,1
9482193,1,1,1,0.015,-0.100,0.200,0.000,3,1,52,3246,0,0,0,0,0.00,0.00,-0.134,-0.671,9.974,-0.732,0.427,0.427,28.74,7.72,0.00,59.7,0.0,1,1,1,1
9492193,1,1,1,0.015,-0.100,0.200,0.000,3,1,52,3246,0,0,0,0,0.00,0.00,-0.107,-0.682,9.987,-0.793,0.427,0.427,28.74,7.71,0.00,61.5,0.0,1,1,1,1
9502193,1,1,1,0.015,-0.100,0.200,0.000,3,1,52,3246,0,0,0,0,0.00,0.00,-0.119,-0.679,9.992,-0.793,0.366,0.427,28.75,7.71,0.00,59.7,0.0,1,1,1,1
9512193,1,1,1,0.015,-0.100,0.200,0.000,3,1,52,3246,0,0,0,0,0.00,0.00,-0.124,-0.678,9.965,-0.793,0.427,0.366,28.77,7.73,0.00,60.5,0.0,1,1,1,1
9522193,1,1,1,0.015,-0.100,0.200,0.000,3,1,52,3246,0,0,0,0,0.00,0.00,-0.119,-0.678,10.001,-0.793,0.427,0.366,28.71,7.72,0.00,59.5,0.0,1,1,1,1
9532193,1,1,1,0.015,-0.100,0.200,0.000,3,1,52,3246,0,0,0,0,0.00,0.00,-0.115,-0.668,9.993,-0.732,0.366,0.427,28.72,7.72,0.00,59.5,0.0,1,1,1,1
9542193,1,1,1,0.015,-0.100,0.200,0.000,3,1,52,3246,0,0,0,0,0.00,0.00,-0.126,-0.672,9.986,-0.854,0.427,0.427,28.73,7.73,0.00,59.5,0.0,1,1,1,1
9552193,1,1,1,0.015,-0.100,0.200,0.000,3,1,52,3246,0,0,0,0,0.00,0.00,-0.142,-0.680,9.994,-0.732,0.488,0.488,28.70,7.72,0.00,60.0,0.0,1,1,1,1
9562201,1,1,1,0.015,-0.100,0.200,0.000,3,1,52,3246,0,0,0,0,0.00,0.00,-0.134,-0.678,10.005,-0.793,0.488,0.427,28.68,7.72,0.00,60.0,0.0,1,1,1,1
9572201,1,1,1,0.015,-0.100,0.200,0.000,3,1,52,3246,0,0,0,0,0.00,0.00,-0.138,-0.679,10.000,-0.793,0.366,0.427,28.71,7.74,0.00,59.7,0.0,1,1,1,1
9582208,1,1,1,0.015,-0.100,0.200,0.000,3,1,52,3246,0,0,0,0,0.00,0.00,-0.150,-0.675,9.999,-0.854,0.366,0.488,28.74,7.72,0.00,59.7,0.0,1,1,1,1
9592208,1,1,1,0.015,-0.100,0.200,0.000,3,1,52,3246,0,0,0,0,0.00,0.00,-0.123,-0.670,9.966,-0.732,0.427,0.488,28.75,7.72,0.00,59.5,0.0,1,1,1,1
9602208,1,1,1,0.015,-0.100,0.200,0.000,3,1,52,3246,0,0,0,0,0.00,0.00,-0.141,-0.660,10.006,-0.732,0.488,0.427,28.70,7.69,0.00,60.5,0.0,1,1,1,1
9612208,1,1,1,0.015,-0.100,0.200,0.000,3,1,52,3246,0,0,0,0,0.00,0.00,-0.134,-0.676,9.997,-0.732,0.427,0.427,28.73,7.72,0.00,59.5,0.0,1,1,1,1
9622208,1,1,1,0.015,-0.100,0.200,0.000,3,1,52,3246,0,0,0,0,0.00,0.00,-0.126,-0.676,9.983,-0.793,0.427,0.488,28.76,7.71,0.00,60.5,0.0,1,1,1,1
9632216,1,1,1,0.015,-0.100,0.200,0.000,3,1,52,3246,0,0,0,0,0.00,0.00,-0.126,-0.673,9.983,-0.732,0.427,0.427,28.70,7.70,0.00,60.0,0.2,1,1,1,1
9642223,1,1,1,0.015,-0.100,0.200,0.000,3,1,52,3246,0,0,0,0,0.00,0.00,-0.100,-0.662,9.996,-0.793,0.366,0.427,28.72,7.71,0.00,60.5,0.0,1,1,1,1
9652223,1,1,1,0.015,-0.100,0.200,0.000,3,1,52,3246,0,0,0,0,0.00,0.00,-0.117,-0.665,9.992,-0.793,0.366,0.427,28.72,7.70,0.00,60.2,0.0,1,1,1,1
9662231,1,1,1,0.015,-0.100,0.200,0.000,3,1,52,3246,0,0,0,0,0.00,0.00,-0.144,-0.661,9.989,-0.793,0.427,0.427,28.72,7.71,0.00,59.2,0.0,1,1,1,1
9672231,1,1,1,0.015,-0.100,0.200,0.000,3,1,52,3246,0,0,0,0,0.00,0.00,-0.142,-0.659,9.977,-0.793,0.488,0.427,28.71,7.72,0.00,59.2,0.0,1,1,1,1
9682231,1,1,1,0.015,-0.100,0.200,0.000,3,1,52,3246,0,0,0,0,0.00,0.00,-0.133,-0.669,9.980,-0.793,0.427,0.488,28.70,7.72,0.00,60.5,0.0,1,1,1,1
9692231,1,1,1,0.015,-0.100,0.200,0.000,3,1,52,3246,0,0,0,0,0.00,0.00,-0.122,-0.685,9.995,-0.671,0.427,0.488,28.75,7.71,0.00,61.0,0.2,1,1,1,1
9702238,1,1,1,0.015,-0.100,0.200,0.000,3,1,52,3246,0,0,0,0,0.00,0.00,-0.123,-0.671,9.987,-0.793,0.427,0.427,28.70,7.72,0.00,59.7,0.3,1,1,1,1
9712238,1,1,1,0.015,-0.100,0.200,0.000,3,1,52,3246,0,0,0,0,0.00,0.00,-0.130,-0.657,9.995,-0.793,0.366,0.427,28.72,7.71,0.00,60.0,0.1,1,1,1,1
9722247,1,1,1,0.015,-0.100,0.200,0.000,3,1,52,3246,0,0,0,0,0.00,0.00,-0.112,-0.648,9.989,-0.793,0.366,0.488,28.71,7.69,0.00,59.0,0.0,1,1,1,1
9732253,1,1,1,0.015,-0.100,0.200,0.000,3,1,52,3246,0,0,0,0,0.00,0.00,-0.116,-0.672,9.971,-0.732,0.488,0.488,28.74,7.73,0.00,60.2,0.0,1,1,1,1
9742262,1,1,1,0.015,-0.100,0.200,0.000,3,1,52,3246,0,0,0,0,0.00,0.00,-0.126,-0.681,9.988,-0.732,0.488,0.488,28.73,7.71,0.00,60.7,0.0,1,1,1,1
9752268,1,1,1,0.015,-0.100,0.200,0.000,3,1,52,3246,0,0,0,0,0.00,0.00,-0.113,-0.664,9.983,-0.732,0.427,0.366,28.75,7.70,0.00,60.0,0.0,1,1,1,1
9762277,1,1,1,0.015,-0.100,0.200,0.000,3,1,52,3246,0,0,0,0,0.00,0.00,-0.119,-0.673,9.992,-0.671,0.488,0.366,28.71,7.69,0.00,59.7,0.0,1,1,1,1
9772277,1,1,1,0.015,-0.100,0.200,0.000,3,1,52,3246,0,0,0,0,0.00,0.00,-0.130,-0.682,9.996,-0.732,0.427,0.366,28.71,7.70,0.00,60.5,0.0,1,1,1,1
9782288,1,1,1,0.015,-0.100,0.200,0.000,3,1,52,3246,0,0,0,0,0.00,0.00,-0.113,-0.684,9.993,-0.732,0.427,0.366,28.72,7.71,0.00,60.2,0.0,1,1,1,1
9792297,1,1,1,0.015,-0.100,0.200,0.000,3,1,52,3246,0,0,0,0,0.00,0.00,-0.110,-0.666,9.996,-0.793,0.488,0.366,28.75,8.65,0.00,59.5,0.2,1,1,1,1
9802303,1,1,1,0.015,-0.100,0.200,0.000,3,1,52,3246,0,0,0,0,0.00,0.00,-0.141,-0.664,9.983,-0.793,0.427,0.427,28.73,7.72,0.00,59.5,0.0,1,1,1,1
9812312,1,1,1,0.015,-0.100,0.200,0.000,3,1,52,3246,0,0,0,0,0.00,0.00,-0.129,-0.672,9.984,-0.854,0.427,0.366,28.74,7.71,0.00,59.2,0.1,1,1,1,1
9822318,1,1,1,0.015,-0.100,0.200,0.000,3,1,52,3246,0,0,0,0,0.00,0.00,-0.138,-0.676,9.965,-0.793,0.427,0.427,28.72,7.70,0.00,60.7,0.1,1,1,1,1
9832327,1,1,1,0.015,-0.100,0.200,0.000,3,1,52,3246,0,0,0,0,0.00,0.00,-0.133,-0.682,9.995,-0.732,0.488,0.427,28.72,7.70,0.00,60.5,0.0,1,1,1,1
9842327,1,1,1,0.015,-0.100,0.200,0.000,3,1,52,3246,0,0,0,0,0.00,0.00,-0.102,-0.680,9.984,-0.671,0.488,0.427,28.77,7.71,0.00,60.0,0.0,1,1,1,1
