timestamp_us,test_id,phase,run_id,cmd_v,cmd_omega,pwm_l,pwm_r,mode_l,mode_r,raw_angle_l,raw_angle_r,delta_angle_l,delta_angle_r,steps_l,steps_r,rpm_l,rpm_r,accel_x,accel_y,accel_z,gyro_x,gyro_y,gyro_z,imu_temp,battery_voltage,driver_voltage,driver_current,driver_power,encoder_valid_l,encoder_valid_r,imu_valid,ina_valid
1283835,1,0,1,0.000,0.000,0.000,0.000,0,0,1168,1363,0,0,0,0,0.00,0.00,0.289,0.091,9.963,-0.183,-0.305,0.244,28.86,8.31,8.41,1.0,8.4,1,1,1,1
1293839,1,0,1,0.000,0.000,0.000,0.000,0,0,1169,1363,-1,0,-1,0,0.00,0.00,0.269,0.087,9.963,-0.122,-0.366,0.183,28.92,8.34,8.41,1.0,8.4,1,1,1,1
1303846,1,0,1,0.000,0.000,0.000,0.000,0,0,1169,1363,0,0,-1,0,0.00,0.00,0.281,0.068,9.964,-0.183,-0.427,0.183,28.89,8.35,8.41,0.8,6.3,1,1,1,1
1313846,1,0,1,0.000,0.000,0.000,0.000,0,0,1169,1363,0,0,-1,0,0.00,0.00,0.299,0.068,9.968,-0.183,-0.366,0.183,28.92,8.34,8.41,0.8,6.3,1,1,1,1
1323846,1,0,1,0.000,0.000,0.000,0.000,0,0,1168,1363,1,0,0,0,0.00,0.00,0.275,0.065,9.963,-0.122,-0.305,0.244,28.91,8.35,8.41,0.8,6.3,1,1,1,1
1333846,1,0,1,0.000,0.000,0.000,0.000,0,0,1169,1363,-1,0,-1,0,-0.29,0.00,0.272,0.083,9.955,-0.061,-0.305,0.244,28.87,8.35,8.41,1.0,8.4,1,1,1,1
1343846,1,0,1,0.000,0.000,0.000,0.000,0,0,1169,1363,0,0,-1,0,-0.29,0.00,0.287,0.084,9.953,-0.122,-0.305,0.244,28.88,8.35,8.41,1.2,10.5,1,1,1,1
1353846,1,0,1,0.000,0.000,0.000,0.000,0,0,1168,1363,1,0,0,0,-0.29,0.00,0.288,0.079,9.971,-0.122,-0.366,0.244,28.89,8.35,8.42,1.0,8.4,1,1,1,1
1363846,1,0,1,0.000,0.000,0.000,0.000,0,0,1168,1363,0,0,0,0,-0.29,0.00,0.268,0.090,9.951,-0.244,-0.305,0.305,28.87,8.35,8.41,1.0,8.4,1,1,1,1
1373846,1,0,1,0.000,0.000,0.000,0.000,0,0,1168,1363,0,0,0,0,-0.29,0.00,0.280,0.084,9.959,-0.244,-0.305,0.305,28.87,8.35,8.41,0.8,6.3,1,1,1,1
1383846,1,0,1,0.000,0.000,0.000,0.000,0,0,1169,1363,-1,0,-1,0,0.00,0.00,0.280,0.081,9.975,-0.244,-0.366,0.244,28.92,8.35,8.42,1.0,8.4,1,1,1,1
1393846,1,0,1,0.000,0.000,0.000,0.000,0,0,1168,1363,1,0,0,0,0.00,0.00,0.280,0.081,9.945,-0.183,-0.427,0.305,28.89,8.34,8.41,1.0,8.4,1,1,1,1
1403846,1,0,1,0.000,0.000,0.000,0.000,0,0,1168,1363,0,0,0,0,0.00,0.00,0.287,0.069,9.977,-0.183,-0.366,0.244,28.92,8.35,8.41,1.0,8.4,1,1,1,1
1413854,1,0,1,0.000,0.000,0.000,0.000,0,0,1169,1363,-1,0,-1,0,0.00,0.00,0.273,0.099,9.971,-0.183,-0.305,0.244,28.87,8.34,8.41,1.0,8.4,1,1,1,1
1423854,1,0,1,0.000,0.000,0.000,0.000,0,0,1168,1363,1,0,0,0,0.00,0.00,0.281,0.082,9.951,-0.122,-0.305,0.305,28.91,8.35,8.41,1.0,8.4,1,1,1,1
1433861,1,0,1,0.000,0.000,0.000,0.000,0,0,1169,1363,-1,0,-1,0,0.00,0.00,0.296,0.078,9.969,-0.183,-0.366,0.244,28.85,8.35,8.41,1.0,8.4,1,1,1,1
1443861,1,0,1,0.000,0.000,0.000,0.000,0,0,1168,1363,1,0,0,0,0.00,0.00,0.288,0.077,9.956,-0.183,-0.366,0.183,28.91,8.35,8.42,1.0,8.4,1,1,1,1
1453869,1,0,1,0.000,0.000,0.000,0.000,0,0,1169,1363,-1,0,-1,0,0.00,0.00,0.283,0.071,9.965,-0.244,-0.427,0.244,28.92,8.35,8.42,1.0,8.4,1,1,1,1
1463869,1,0,1,0.000,0.000,0.000,0.000,0,0,1168,1363,1,0,0,0,0.00,0.00,0.272,0.078,9.983,-0.183,-0.427,0.244,28.89,8.33,8.41,1.0,8.4,1,1,1,1
1473869,1,0,1,0.000,0.000,0.000,0.000,0,0,1169,1363,-1,0,-1,0,0.00,0.00,0.276,0.080,9.992,-0.183,-0.427,0.305,28.88,8.35,8.42,1.0,8.4,1,1,1,1
1483870,1,0,1,0.000,0.000,0.000,0.000,0,0,1169,1363,0,0,-1,0,0.00,0.00,0.275,0.058,9.962,-0.183,-0.366,0.244,28.89,8.35,8.42,0.8,6.3,1,1,1,1
1493885,1,0,1,0.000,0.000,0.000,0.000,0,0,1168,1363,1,0,0,0,0.00,0.00,0.274,0.077,9.960,-0.183,-0.305,0.305,28.93,8.34,8.41,1.0,8.4,1,1,1,1
1503891,1,0,1,0.000,0.000,0.000,0.000,0,0,1169,1363,-1,0,-1,0,0.00,0.00,0.280,0.074,9.973,0.000,-0.305,0.244,28.92,8.35,8.41,1.0,8.4,1,1,1,1
1513900,1,0,1,0.000,0.000,0.000,0.000,0,0,1168,1363,1,0,0,0,0.00,0.00,0.287,0.081,9.978,-0.122,-0.366,0.244,28.91,8.34,8.42,1.0,8.4,1,1,1,1
1523900,1,0,1,0.000,0.000,0.000,0.000,0,0,1168,1363,0,0,0,0,0.00,0.00,0.303,0.065,9.955,-0.122,-0.366,0.305,28.93,8.35,8.42,1.0,8.4,1,1,1,1
1533906,1,0,1,0.000,0.000,0.000,0.000,0,0,1168,1363,0,0,0,0,0.29,0.00,0.299,0.082,9.986,-0.183,-0.366,0.305,28.88,8.33,8.42,1.0,8.4,1,1,1,1
1543915,1,0,1,0.000,0.000,0.000,0.000,0,0,1169,1363,-1,0,-1,0,0.29,0.00,0.277,0.089,9.970,-0.244,-0.305,0.305,28.91,8.35,8.42,1.0,8.4,1,1,1,1
1553922,1,0,1,0.000,0.000,0.000,0.000,0,0,1169,1363,0,0,-1,0,0.29,0.00,0.280,0.082,9.958,-0.244,-0.427,0.244,28.92,8.35,8.42,0.8,6.3,1,1,1,1
1563922,1,0,1,0.000,0.000,0.000,0.000,0,0,1168,1363,1,0,0,0,0.29,0.00,0.299,0.082,9.965,-0.183,-0.366,0.244,28.90,8.35,8.42,1.0,8.4,1,1,1,1
1573922,1,0,1,0.000,0.000,0.000,0.000,0,0,1169,1363,-1,0,-1,0,0.29,0.00,0.291,0.065,9.952,-0.183,-0.366,0.305,28.90,8.34,8.42,1.0,8.4,1,1,1,1
1583933,1,0,1,0.000,0.000,0.000,0.000,0,0,1169,1363,0,0,-1,0,-0.29,0.00,0.263,0.077,9.970,-0.244,-0.366,0.244,28.92,8.35,8.41,1.0,8.4,1,1,1,1
1593937,1,0,1,0.000,0.000,0.000,0.000,0,0,1168,1363,1,0,0,0,-0.29,0.00,0.262,0.118,9.977,-0.244,-0.244,0.183,28.91,8.35,8.41,1.0,8.4,1,1,1,1
1603945,1,0,1,0.000,0.000,0.000,0.000,0,0,1169,1363,-1,0,-1,0,-0.29,0.00,0.271,0.085,9.974,-0.244,-0.305,0.305,28.93,8.35,8.41,1.0,8.4,1,1,1,1
1613952,1,0,1,0.000,0.000,0.000,0.000,0,0,1169,1363,0,0,-1,0,-0.29,0.00,0.262,0.069,9.996,-0.122,-0.427,0.305,28.90,8.37,8.41,1.0,8.4,1,1,1,1
1623960,1,0,1,0.000,0.000,0.000,0.000,0,0,1169,1363,0,0,-1,0,-0.29,0.00,0.275,0.081,9.977,-0.122,-0.427,0.305,28.93,8.34,8.41,1.0,8.4,1,1,1,1
1633967,1,0,1,0.000,0.000,0.000,0.000,0,0,1169,1363,0,0,-1,0,0.00,0.00,0.290,0.091,9.975,-0.244,-0.366,0.183,28.89,8.35,8.42,1.0,8.4,1,1,1,1
1643976,1,0,1,0.000,0.000,0.000,0.000,0,0,1168,1363,1,0,0,0,0.00,0.00,0.265,0.083,9.956,-0.183,-0.305,0.244,28.89,8.35,8.41,1.0,8.4,1,1,1,1
1653982,1,0,1,0.000,0.000,0.000,0.000,0,0,1168,1363,0,0,0,0,0.00,0.00,0.271,0.071,9.960,-0.244,-0.305,0.244,28.91,8.33,8.41,0.8,6.3,1,1,1,1
1663991,1,0,1,0.000,0.000,0.000,0.000,0,0,1168,1363,0,0,0,0,0.00,0.00,0.281,0.076,9.954,-0.122,-0.366,0.183,28.94,8.35,8.42,1.0,8.4,1,1,1,1
1673991,1,0,1,0.000,0.000,0.000,0.000,0,0,1168,1363,0,0,0,0,0.00,0.00,0.271,0.075,9.953,-0.183,-0.305,0.183,28.89,8.35,8.41,0.8,6.3,1,1,1,1
1683998,1,0,1,0.000,0.000,0.000,0.000,0,0,1169,1363,-1,0,-1,0,0.00,0.00,0.256,0.092,9.969,-0.183,-0.427,0.244,28.93,8.33,8.42,1.0,8.4,1,1,1,1
1694013,1,0,1,0.000,0.000,0.000,0.000,0,0,1169,1363,0,0,-1,0,0.00,0.00,0.260,0.086,9.963,-0.122,-0.366,0.305,28.91,8.34,8.41,1.0,8.4,1,1,1,1
1704021,1,0,1,0.000,0.000,0.000,0.000,0,0,1169,1363,0,0,-1,0,0.00,0.00,0.273,0.077,9.934,-0.122,-0.305,0.244,28.90,8.35,8.41,1.0,8.4,1,1,1,1
1714021,1,0,1,0.000,0.000,0.000,0.000,0,0,1169,1363,0,0,-1,0,0.00,0.00,0.275,0.092,9.971,-0.183,-0.366,0.244,28.86,8.33,8.41,1.0,8.4,1,1,1,1
1724028,1,0,1,0.000,0.000,0.000,0.000,0,0,1169,1363,0,0,-1,0,0.00,0.00,0.268,0.085,9.967,-0.183,-0.366,0.305,28.93,8.36,8.41,1.0,8.4,1,1,1,1
1734036,1,0,1,0.000,0.000,0.000,0.000,0,0,1168,1363,1,0,0,0,0.29,0.00,0.275,0.072,9.953,-0.183,-0.366,0.244,28.92,8.35,8.41,1.0,8.4,1,1,1,1
1744043,1,0,1,0.000,0.000,0.000,0.000,0,0,1169,1363,-1,0,-1,0,0.29,0.00,0.293,0.056,9.963,-0.183,-0.366,0.305,28.93,8.34,8.42,1.0,8.4,1,1,1,1
1754043,1,0,1,0.000,0.000,0.000,0.000,0,0,1168,1363,1,0,0,0,0.29,0.00,0.279,0.066,9.991,-0.183,-0.305,0.305,28.91,8.34,8.41,1.0,8.4,1,1,1,1
1764051,1,0,1,0.000,0.000,0.000,0.000,0,0,1169,1363,-1,0,-1,0,0.29,0.00,0.280,0.091,9.960,-0.244,-0.305,0.305,28.91,8.34,8.42,0.8,6.3,1,1,1,1
1774058,1,0,1,0.000,0.000,0.000,0.000,0,0,1168,1363,1,0,0,0,0.29,0.00,0.283,0.074,9.961,-0.183,-0.366,0.305,28.95,8.35,8.41,1.0,8.4,1,1,1,1
1784067,1,0,1,0.000,0.000,0.000,0.000,0,0,1168,1363,0,0,0,0,0.00,0.00,0.280,0.056,9.953,-0.183,-0.366,0.244,28.95,8.34,8.41,1.0,8.4,1,1,1,1
1794067,1,0,1,0.000,0.000,0.000,0.000,0,0,1169,1363,-1,0,-1,0,0.00,0.00,0.272,0.080,9.951,-0.244,-0.366,0.305,28.94,8.32,8.41,1.0,8.4,1,1,1,1
1804067,1,0,1,0.000,0.000,0.000,0.000,0,0,1169,1363,0,0,-1,0,0.00,0.00,0.274,0.075,9.965,-0.183,-0.305,0.305,28.91,8.35,8.42,1.0,8.4,1,1,1,1
1814067,1,0,1,0.000,0.000,0.000,0.000,0,0,1168,1363,1,0,0,0,0.00,0.00,0.284,0.093,9.960,-0.122,-0.366,0.244,28.93,8.35,8.41,1.2,10.5,1,1,1,1
1824067,1,0,1,0.000,0.000,0.000,0.000,0,0,1168,1363,0,0,0,0,0.00,0.00,0.284,0.089,9.964,-0.183,-0.427,0.183,28.89,8.35,8.41,0.8,6.3,1,1,1,1
1834067,1,0,1,0.000,0.000,0.000,0.000,0,0,1169,1363,-1,0,-1,0,-0.29,0.00,0.291,0.084,9.946,-0.183,-0.366,0.183,28.89,8.35,8.41,1.0,8.4,1,1,1,1
1844073,1,0,1,0.000,0.000,0.000,0.000,0,0,1169,1363,0,0,-1,0,-0.29,0.00,0.290,0.081,9.951,-0.183,-0.244,0.305,28.91,8.35,8.41,1.0,8.4,1,1,1,1
1854082,1,0,1,0.000,0.000,0.000,0.000,0,0,1169,1363,0,0,-1,0,-0.29,0.00,0.257,0.073,9.971,-0.183,-0.305,0.244,28.95,8.34,8.42,1.0,8.4,1,1,1,1
1864082,1,0,1,0.000,0.000,0.000,0.000,0,0,1169,1363,0,0,-1,0,-0.29,0.00,0.284,0.080,9.950,-0.122,-0.366,0.305,28.90,8.35,8.42,1.0,8.4,1,1,1,1
1874086,1,0,1,0.000,0.000,0.000,0.000,0,0,1169,1363,0,0,-1,0,-0.29,0.00,0.265,0.098,9.983,-0.183,-0.305,0.244,28.96,8.35,8.41,1.0,8.4,1,1,1,1
1884097,1,0,1,0.000,0.000,0.000,0.000,0,0,1168,1363,1,0,0,0,0.29,0.00,0.272,0.077,9.951,-0.244,-0.305,0.305,28.96,8.35,8.42,1.0,8.4,1,1,1,1
1894097,1,0,1,0.000,0.000,0.000,0.000,0,0,1169,1363,-1,0,-1,0,0.29,0.00,0.280,0.092,9.968,-0.244,-0.244,0.305,28.90,8.35,8.41,1.0,8.4,1,1,1,1
1904097,1,0,1,0.000,0.000,0.000,0.000,0,0,1169,1362,0,-1,-1,-1,0.29,0.00,0.291,0.094,9.966,-0.244,-0.366,0.305,28.89,8.35,8.41,1.0,8.4,1,1,1,1
1914097,1,0,1,0.000,0.000,0.000,0.000,0,0,1169,1363,0,1,-1,0,0.29,0.00,0.274,0.091,9.969,-0.244,-0.427,0.183,28.93,8.35,8.42,1.0,8.4,1,1,1,1
1924104,1,0,1,0.000,0.000,0.000,0.000,0,0,1169,1363,0,0,-1,0,0.29,0.00,0.278,0.098,9.962,-0.183,-0.305,0.305,28.93,8.35,8.41,1.0,8.4,1,1,1,1
1934104,1,0,1,0.000,0.000,0.000,0.000,0,0,1169,1363,0,0,-1,0,-0.29,0.00,0.272,0.073,9.978,-0.183,-0.305,0.305,28.90,8.36,8.42,1.0,8.4,1,1,1,1
1944112,1,0,1,0.000,0.000,0.000,0.000,0,0,1169,1363,0,0,-1,0,-0.29,0.00,0.269,0.093,9.941,-0.183,-0.366,0.244,28.88,8.34,8.42,1.0,8.4,1,1,1,1
1954112,1,0,1,0.000,0.000,0.000,0.000,0,0,1169,1363,0,0,-1,0,-0.29,0.00,0.275,0.063,9.972,-0.244,-0.305,0.305,28.89,8.35,8.42,1.0,8.4,1,1,1,1
1964119,1,0,1,0.000,0.000,0.000,0.000,0,0,1169,1363,0,0,-1,0,-0.29,0.00,0.302,0.073,9.976,-0.183,-0.244,0.183,28.89,8.35,8.42,1.0,8.4,1,1,1,1
1974119,1,0,1,0.000,0.000,0.000,0.000,0,0,1169,1363,0,0,-1,0,-0.29,0.00,0.288,0.098,9.963,-0.244,-0.305,0.183,28.90,8.35,8.42,1.0,8.4,1,1,1,1
1984119,1,0,1,0.000,0.000,0.000,0.000,0,0,1169,1363,0,0,-1,0,0.00,0.00,0.274,0.086,9.962,-0.183,-0.427,0.244,28.91,8.35,8.42,0.8,6.3,1,1,1,1
1994127,1,0,1,0.000,0.000,0.000,0.000,0,0,1169,1363,0,0,-1,0,0.00,0.00,0.276,0.083,9.983,-0.122,-0.366,0.183,28.92,8.35,8.41,1.0,8.4,1,1,1,1
2004134,1,0,1,0.000,0.000,0.000,0.000,0,0,1169,1363,0,0,-1,0,0.00,0.00,0.280,0.096,9.984,-0.183,-0.427,0.244,28.92,8.34,8.41,1.0,8.4,1,1,1,1
2014143,1,0,1,0.000,0.000,0.000,0.000,0,0,1168,1363,1,0,0,0,0.00,0.00,0.274,0.084,9.947,-0.183,-0.427,0.183,28.90,8.34,8.41,0.8,6.3,1,1,1,1
2024143,1,0,1,0.000,0.000,0.000,0.000,0,0,1169,1363,-1,0,-1,0,0.00,0.00,0.281,0.104,9.941,-0.183,-0.305,0.244,28.94,8.34,8.41,1.0,8.4,1,1,1,1
2034149,1,0,1,0.000,0.000,0.000,0.000,0,0,1169,1363,0,0,-1,0,0.00,0.00,0.284,0.114,9.947,-0.122,-0.366,0.305,28.93,8.32,8.41,1.0,8.4,1,1,1,1
2044149,1,0,1,0.000,0.000,0.000,0.000,0,0,1169,1362,0,-1,-1,-1,0.00,0.00,0.278,0.105,9.963,-0.183,-0.366,0.366,28.95,8.34,8.41,1.0,8.4,1,1,1,1
2054149,1,0,1,0.000,0.000,0.000,0.000,0,0,1169,1363,0,1,-1,0,0.00,0.00,0.275,0.107,9.981,-0.122,-0.305,0.305,28.88,8.34,8.41,0.8,6.3,1,1,1,1
2064158,1,0,1,0.000,0.000,0.000,0.000,0,0,1169,1363,0,0,-1,0,0.00,0.00,0.271,0.092,9.959,-0.183,-0.305,0.244,28.94,8.35,8.41,1.0,8.4,1,1,1,1
2074158,1,0,1,0.000,0.000,0.000,0.000,0,0,1169,1363,0,0,-1,0,0.00,0.00,0.291,0.077,9.963,-0.122,-0.366,0.305,28.90,8.35,8.41,1.0,8.4,1,1,1,1
2084158,1,0,1,0.000,0.000,0.000,0.000,0,0,1168,1363,1,0,0,0,0.29,0.00,0.284,0.077,9.960,-0.061,-0.366,0.244,28.96,8.35,8.41,1.0,8.4,1,1,1,1
2094158,1,0,1,0.000,0.000,0.000,0.000,0,0,1169,1363,-1,0,-1,0,0.29,0.00,0.281,0.076,9.975,-0.183,-0.244,0.244,28.93,8.35,8.41,1.0,8.4,1,1,1,1
2104158,1,0,1,0.000,0.000,0.000,0.000,0,0,1168,1363,1,0,0,0,0.29,0.00,0.279,0.073,9.964,-0.244,-0.244,0.244,28.93,8.35,8.42,0.8,6.3,1,1,1,1
2114164,1,0,1,0.000,0.000,0.000,0.000,0,0,1169,1363,-1,0,-1,0,0.29,0.00,0.281,0.078,9.971,-0.244,-0.244,0.305,28.93,8.35,8.41,1.0,8.4,1,1,1,1
2124164,1,0,1,0.000,0.000,0.000,0.000,0,0,1169,1363,0,0,-1,0,0.29,0.00,0.274,0.090,9.963,-0.244,-0.427,0.305,28.96,8.35,8.42,1.0,8.4,1,1,1,1
2134178,1,0,1,0.000,0.000,0.000,0.000,0,0,1169,1363,0,0,-1,0,-0.29,0.00,0.274,0.089,9.972,-0.122,-0.366,0.244,28.96,8.37,8.41,0.8,6.3,1,1,1,1
2144193,1,0,1,0.000,0.000,0.000,0.000,0,0,1169,1363,0,0,-1,0,-0.29,0.00,0.281,0.078,9.962,-0.305,-0.366,0.244,28.91,8.34,8.41,1.0,8.4,1,1,1,1
2154199,1,0,1,0.000,0.000,0.000,0.000,0,0,1169,1363,0,0,-1,0,-0.29,0.00,0.277,0.101,9.965,-0.183,-0.305,0.244,28.91,8.35,8.41,1.0,8.4,1,1,1,1
2164213,1,0,1,0.000,0.000,0.000,0.000,0,0,1169,1363,0,0,-1,0,-0.29,0.00,0.287,0.089,9.971,-0.122,-0.305,0.244,28.91,8.34,8.41,1.0,8.4,1,1,1,1
2174223,1,0,1,0.000,0.000,0.000,0.000,0,0,1169,1363,0,0,-1,0,-0.29,0.00,0.297,0.078,9.963,-0.122,-0.366,0.244,28.88,8.36,8.41,1.0,8.4,1,1,1,1
2184223,1,0,1,0.000,0.000,0.000,0.000,0,0,1169,1363,0,0,-1,0,0.00,0.00,0.293,0.094,9.968,-0.183,-0.305,0.244,28.93,8.33,8.41,0.8,6.3,1,1,1,1
2194230,1,0,1,0.000,0.000,0.000,0.000,0,0,1169,1363,0,0,-1,0,0.00,0.00,0.282,0.101,9.951,-0.244,-0.305,0.244,28.93,8.34,8.41,1.0,8.4,1,1,1,1
2204230,1,0,1,0.000,0.000,0.000,0.000,0,0,1169,1363,0,0,-1,0,0.00,0.00,0.289,0.088,9.969,-0.244,-0.366,0.305,28.91,8.35,8.41,1.0,8.4,1,1,1,1
2214230,1,0,1,0.000,0.000,0.000,0.000,0,0,1169,1363,0,0,-1,0,0.00,0.00,0.265,0.080,9.978,-0.122,-0.305,0.305,28.93,8.35,8.41,1.0,8.4,1,1,1,1
2224230,1,0,1,0.000,0.000,0.000,0.000,0,0,1169,1363,0,0,-1,0,0.00,0.00,0.279,0.084,9.989,-0.122,-0.305,0.183,28.93,8.35,8.41,1.0,8.4,1,1,1,1
2234238,1,0,1,0.000,0.000,0.000,0.000,0,0,1169,1363,0,0,-1,0,0.00,0.00,0.278,0.084,9.971,-0.183,-0.305,0.244,28.87,8.36,8.41,1.0,8.4,1,1,1,1
2244245,1,0,1,0.000,0.000,0.000,0.000,0,0,1169,1363,0,0,-1,0,0.00,0.00,0.269,0.094,9.965,-0.061,-0.305,0.244,28.88,8.35,8.41,1.0,8.4,1,1,1,1
2254253,1,0,1,0.000,0.000,0.000,0.000,0,0,1169,1363,0,0,-1,0,0.00,0.00,0.277,0.093,9.967,-0.122,-0.305,0.183,28.89,8.33,8.41,1.0,8.4,1,1,1,1
2264260,1,0,1,0.000,0.000,0.000,0.000,0,0,1169,1363,0,0,-1,0,0.00,0.00,0.296,0.090,9.956,-0.183,-0.427,0.244,28.90,8.34,8.41,0.8,6.3,1,1,1,1
2274269,1,0,1,0.000,0.000,0.000,0.000,0,0,1169,1363,0,0,-1,0,0.00,0.00,0.286,0.080,9.956,-0.183,-0.366,0.244,28.93,8.35,8.41,0.8,6.3,1,1,1,1
2284276,1,0,1,0.000,0.000,0.000,0.000,0,0,1168,1363,1,0,0,0,0.29,0.00,0.297,0.105,9.952,-0.183,-0.305,0.305,28.93,8.34,8.40,1.0,8.4,1,1,1,1
2294284,1,0,1,0.000,0.000,0.000,0.000,0,0,1169,1362,-1,-1,-1,-1,0.29,0.00,0.301,0.099,9.956,-0.183,-0.305,0.366,28.96,8.33,8.41,1.0,8.4,1,1,1,1
2304284,1,0,1,0.000,0.000,0.000,0.000,0,0,1169,1363,0,1,-1,0,0.29,0.00,0.259,0.090,9.941,-0.244,-0.305,0.305,28.93,8.34,8.41,0.8,6.3,1,1,1,1
2314290,1,0,1,0.000,0.000,0.000,0.000,0,0,1169,1363,0,0,-1,0,0.29,0.00,0.290,0.088,9.979,-0.244,-0.305,0.305,28.92,8.35,8.41,0.8,6.3,1,1,1,1
2324299,1,0,1,0.000,0.000,0.000,0.000,0,0,1169,1363,0,0,-1,0,0.29,0.00,0.291,0.079,9.961,-0.122,-0.427,0.244,28.92,8.35,8.42,0.8,6.3,1,1,1,1
2334306,1,0,1,0.000,0.000,0.000,0.000,0,0,1169,1363,0,0,-1,0,-0.29,0.00,0.289,0.092,9.954,-0.244,-0.305,0.244,28.99,8.33,8.41,1.0,8.4,1,1,1,1
2344314,1,0,1,0.000,0.000,0.000,0.000,0,0,1168,1363,1,0,0,0,-0.29,0.00,0.291,0.082,9.969,-0.244,-0.305,0.244,28.94,8.34,8.41,1.0,8.4,1,1,1,1
2354321,1,0,1,0.000,0.000,0.000,0.000,0,0,1169,1363,-1,0,-1,0,-0.29,0.00,0.291,0.077,9.996,-0.183,-0.305,0.244,28.94,8.33,8.41,1.0,8.4,1,1,1,1
2364321,1,0,1,0.000,0.000,0.000,0.000,0,0,1169,1363,0,0,-1,0,-0.29,0.00,0.267,0.065,9.959,-0.122,-0.366,0.244,28.95,8.34,8.41,1.0,8.4,1,1,1,1
2374329,1,0,1,0.000,0.000,0.000,0.000,0,0,1169,1363,0,0,-1,0,-0.29,0.00,0.277,0.084,9.940,-0.183,-0.366,0.244,28.94,8.37,8.41,1.0,8.4,1,1,1,1
2384336,1,0,1,0.000,0.000,0.000,0.000,0,0,1169,1363,0,0,-1,0,0.00,0.00,0.300,0.106,9.936,-0.183,-0.305,0.244,28.94,8.34,8.41,1.0,8.4,1,1,1,1
2394344,1,0,1,0.000,0.000,0.000,0.000,0,0,1169,1363,0,0,-1,0,0.00,0.00,0.283,0.097,9.970,-0.183,-0.366,0.244,28.93,8.35,8.41,1.0,8.4,1,1,1,1
2404351,1,0,1,0.000,0.000,0.000,0.000,0,0,1169,1363,0,0,-1,0,0.00,0.00,0.281,0.095,9.983,-0.244,-0.366,0.244,28.96,8.34,8.41,1.0,8.4,1,1,1,1
2414360,1,0,1,0.000,0.000,0.000,0.000,0,0,1169,1363,0,0,-1,0,0.00,0.00,0.290,0.087,9.964,-0.122,-0.305,0.244,28.97,8.33,8.41,1.0,8.4,1,1,1,1
2424360,1,0,1,0.000,0.000,0.000,0.000,0,0,1168,1362,1,-1,0,-1,0.00,0.00,0.289,0.084,9.947,-0.061,-0.366,0.183,28.95,8.37,8.41,0.8,6.3,1,1,1,1
2434367,1,0,1,0.000,0.000,0.000,0.000,0,0,1169,1363,-1,1,-1,0,0.00,0.00,0.266,0.073,9.960,-0.183,-0.366,0.244,28.88,8.35,8.41,1.0,8.4,1,1,1,1
2444381,1,0,1,0.000,0.000,0.000,0.000,0,0,1169,1363,0,0,-1,0,0.00,0.00,0.262,0.074,9.975,-0.183,-0.305,0.244,28.93,8.35,8.41,1.0,8.4,1,1,1,1
2454381,1,0,1,0.000,0.000,0.000,0.000,0,0,1169,1363,0,0,-1,0,0.00,0.00,0.260,0.081,9.958,-0.183,-0.366,0.244,28.95,8.33,8.42,1.0,8.4,1,1,1,1
2464390,1,0,1,0.000,0.000,0.000,0.000,0,0,1168,1363,1,0,0,0,0.00,0.00,0.268,0.087,9.978,-0.122,-0.427,0.244,28.88,8.34,8.42,0.8,6.3,1,1,1,1
2474397,1,0,1,0.000,0.000,0.000,0.000,0,0,1169,1363,-1,0,-1,0,0.00,0.00,0.268,0.074,9.956,-0.122,-0.305,0.305,28.93,8.35,8.41,1.0,8.4,1,1,1,1
2484405,1,0,1,0.000,0.000,0.000,0.000,0,0,1169,1363,0,0,-1,0,0.00,0.00,0.265,0.071,9.965,-0.122,-0.366,0.305,28.93,8.34,8.41,1.0,8.4,1,1,1,1
2494405,1,0,1,0.000,0.000,0.000,0.000,0,0,1169,1363,0,0,-1,0,0.00,0.00,0.294,0.079,9.978,-0.183,-0.305,0.244,28.91,8.35,8.41,1.0,8.4,1,1,1,1
2504405,1,0,1,0.000,0.000,0.000,0.000,0,0,1169,1362,0,-1,-1,-1,0.00,0.00,0.309,0.075,9.975,-0.183,-0.305,0.305,28.94,8.34,8.41,1.0,8.4,1,1,1,1
2514412,1,0,1,0.000,0.000,0.000,0.000,0,0,1169,1363,0,1,-1,0,0.00,0.00,0.290,0.080,9.957,-0.244,-0.366,0.244,28.93,8.34,8.42,1.0,8.4,1,1,1,1
2524420,1,0,1,0.000,0.000,0.000,0.000,0,0,1169,1363,0,0,-1,0,0.00,0.00,0.278,0.093,9.978,-0.183,-0.366,0.122,28.90,8.34,8.42,1.0,8.4,1,1,1,1
2534427,1,0,1,0.000,0.000,0.000,0.000,0,0,1169,1363,0,0,-1,0,0.00,0.00,0.275,0.086,9.959,-0.122,-0.305,0.183,28.94,8.35,8.41,1.0,8.4,1,1,1,1
2544436,1,0,1,0.000,0.000,0.000,0.000,0,0,1169,1363,0,0,-1,0,0.00,0.00,0.286,0.075,9.946,-0.122,-0.305,0.244,28.89,8.34,8.41,1.0,8.4,1,1,1,1
2554436,1,0,1,0.000,0.000,0.000,0.000,0,0,1169,1363,0,0,-1,0,0.00,0.00,0.285,0.071,9.945,-0.305,-0.305,0.244,28.89,8.33,8.41,1.0,8.4,1,1,1,1
2564436,1,0,1,0.000,0.000,0.000,0.000,0,0,1169,1362,0,-1,-1,-1,0.00,0.00,0.269,0.079,9.941,-0.305,-0.305,0.244,28.93,8.35,8.41,1.0,8.4,1,1,1,1
2574442,1,0,1,0.000,0.000,0.000,0.000,0,0,1169,1363,0,1,-1,0,0.00,0.00,0.278,0.099,9.968,-0.183,-0.244,0.244,28.93,8.35,8.41,1.0,8.4,1,1,1,1
2584451,1,0,1,0.000,0.000,0.000,0.000,0,0,1169,1362,0,-1,-1,-1,0.00,-0.29,0.287,0.087,9.967,-0.183,-0.244,0.244,28.94,8.37,8.42,0.8,6.3,1,1,1,1
2594457,1,0,1,0.000,0.000,0.000,0.000,0,0,1169,1363,0,1,-1,0,0.00,-0.29,0.280,0.089,9.965,-0.183,-0.366,0.244,28.96,8.36,8.42,1.0,8.4,1,1,1,1
2604466,1,0,1,0.000,0.000,0.000,0.000,0,0,1169,1363,0,0,-1,0,0.00,-0.29,0.308,0.082,9.977,-0.122,-0.366,0.183,28.90,8.35,8.41,1.0,8.4,1,1,1,1
2614466,1,0,1,0.000,0.000,0.000,0.000,0,0,1169,1363,0,0,-1,0,0.00,-0.29,0.293,0.090,9.974,-0.183,-0.305,0.244,28.91,8.34,8.41,1.0,8.4,1,1,1,1
2624472,1,0,1,0.000,0.000,0.000,0.000,0,0,1169,1363,0,0,-1,0,0.00,-0.29,0.277,0.092,9.960,-0.244,-0.305,0.183,28.91,8.35,8.41,1.0,8.4,1,1,1,1
2634481,1,0,1,0.000,0.000,0.000,0.000,0,0,1169,1363,0,0,-1,0,0.00,0.29,0.280,0.089,9.962,-0.183,-0.305,0.244,28.95,8.34,8.41,1.0,8.4,1,1,1,1
2644488,1,0,1,0.000,0.000,0.000,0.000,0,0,1169,1363,0,0,-1,0,0.00,0.29,0.278,0.102,9.944,-0.183,-0.366,0.244,28.94,8.35,8.41,1.0,8.4,1,1,1,1
2654488,1,0,1,0.000,0.000,0.000,0.000,0,0,1169,1363,0,0,-1,0,0.00,0.29,0.276,0.101,9.948,-0.122,-0.366,0.244,28.88,8.34,8.41,1.0,8.4,1,1,1,1
2664488,1,0,1,0.000,0.000,0.000,0.000,0,0,1169,1363,0,0,-1,0,0.00,0.29,0.292,0.086,9.941,-0.183,-0.305,0.183,28.93,8.34,8.41,0.8,6.3,1,1,1,1
2674488,1,0,1,0.000,0.000,0.000,0.000,0,0,1169,1363,0,0,-1,0,0.00,0.29,0.282,0.093,9.949,-0.122,-0.366,0.183,28.93,8.33,8.41,1.0,8.4,1,1,1,1
2684496,1,0,1,0.000,0.000,0.000,0.000,0,0,1169,1363,0,0,-1,0,0.00,0.00,0.296,0.107,9.958,-0.061,-0.305,0.305,28.89,8.34,8.41,1.0,8.4,1,1,1,1
2694503,1,0,1,0.000,0.000,0.000,0.000,0,0,1169,1363,0,0,-1,0,0.00,0.00,0.283,0.101,9.972,-0.244,-0.366,0.183,28.92,8.35,8.41,1.0,8.4,1,1,1,1
2704503,1,0,1,0.000,0.000,0.000,0.000,0,0,1169,1363,0,0,-1,0,0.00,0.00,0.276,0.096,9.953,-0.183,-0.427,0.244,28.93,8.33,8.41,1.0,8.4,1,1,1,1
2714511,1,0,1,0.000,0.000,0.000,0.000,0,0,1169,1363,0,0,-1,0,0.00,0.00,0.260,0.101,9.944,-0.122,-0.366,0.244,28.95,8.35,8.41,0.8,6.3,1,1,1,1
2724518,1,0,1,0.000,0.000,0.000,0.000,0,0,1169,1363,0,0,-1,0,0.00,0.00,0.290,0.081,9.967,-0.122,-0.244,0.244,28.96,8.34,8.41,1.0,8.4,1,1,1,1
2734527,1,0,1,0.000,0.000,0.000,0.000,0,0,1169,1363,0,0,-1,0,0.00,0.00,0.281,0.079,9.966,-0.122,-0.366,0.305,28.91,8.35,8.41,1.0,8.4,1,1,1,1
2744527,1,0,1,0.000,0.000,0.000,0.000,0,0,1169,1363,0,0,-1,0,0.00,0.00,0.260,0.099,9.939,-0.183,-0.366,0.305,28.91,8.35,8.41,1.0,8.4,1,1,1,1
2754527,1,0,1,0.000,0.000,0.000,0.000,0,0,1169,1363,0,0,-1,0,0.00,0.00,0.274,0.077,9.964,-0.183,-0.305,0.305,28.94,8.34,8.41,1.0,8.4,1,1,1,1
2764533,1,0,1,0.000,0.000,0.000,0.000,0,0,1168,1363,1,0,0,0,0.00,0.00,0.289,0.093,9.954,-0.061,-0.366,0.244,28.91,8.35,8.41,0.8,6.3,1,1,1,1
2774542,1,0,1,0.000,0.000,0.000,0.000,0,0,1169,1363,-1,0,-1,0,0.00,0.00,0.294,0.091,9.943,-0.183,-0.366,0.183,28.94,8.35,8.41,1.0,8.4,1,1,1,1
2784542,1,0,1,0.000,0.000,0.000,0.000,0,0,1169,1363,0,0,-1,0,0.00,0.00,0.273,0.074,9.954,-0.122,-0.427,0.183,28.91,8.35,8.41,0.8,6.3,1,1,1,1
2794542,1,0,1,0.000,0.000,0.000,0.000,0,0,1169,1363,0,0,-1,0,0.00,0.00,0.293,0.099,9.966,-0.122,-0.366,0.305,28.94,8.35,8.41,1.0,8.4,1,1,1,1
2804542,1,0,1,0.000,0.000,0.000,0.000,0,0,1169,1363,0,0,-1,0,0.00,0.00,0.300,0.100,9.969,-0.122,-0.305,0.244,28.91,8.34,8.41,1.0,8.4,1,1,1,1
2814548,1,0,1,0.000,0.000,0.000,0.000,0,0,1169,1363,0,0,-1,0,0.00,0.00,0.274,0.098,9.956,-0.183,-0.305,0.244,28.91,8.35,8.41,1.0,8.4,1,1,1,1
2824548,1,0,1,0.000,0.000,0.000,0.000,0,0,1169,1363,0,0,-1,0,0.00,0.00,0.245,0.087,9.961,-0.183,-0.366,0.427,28.94,8.35,8.41,1.0,8.4,1,1,1,1
2834548,1,0,1,0.000,0.000,0.000,0.000,0,0,1169,1363,0,0,-1,0,0.00,0.00,0.275,0.089,9.951,-0.122,-0.427,0.244,28.89,8.34,8.41,1.0,8.4,1,1,1,1
2844557,1,0,1,0.000,0.000,0.000,0.000,0,0,1169,1363,0,0,-1,0,0.00,0.00,0.268,0.105,9.966,-0.122,-0.366,0.183,28.92,8.33,8.41,1.0,8.4,1,1,1,1
2854563,1,0,1,0.000,0.000,0.000,0.000,0,0,1169,1363,0,0,-1,0,0.00,0.00,0.297,0.081,9.957,-0.122,-0.305,0.183,28.94,8.35,8.41,1.0,8.4,1,1,1,1
2864572,1,0,1,0.000,0.000,0.000,0.000,0,0,1168,1363,1,0,0,0,0.00,0.00,0.280,0.093,9.950,-0.244,-0.366,0.244,28.91,8.34,8.40,0.8,6.3,1,1,1,1
2874579,1,0,1,0.000,0.000,0.000,0.000,0,0,1169,1363,-1,0,-1,0,0.00,0.00,0.287,0.096,9.961,-0.305,-0.305,0.244,28.95,8.35,8.41,0.8,6.3,1,1,1,1
2884587,1,0,1,0.000,0.000,0.000,0.000,0,0,1169,1363,0,0,-1,0,0.00,0.00,0.277,0.092,9.951,-0.183,-0.305,0.305,28.89,8.35,8.41,1.0,8.4,1,1,1,1
2894594,1,0,1,0.000,0.000,0.000,0.000,0,0,1169,1363,0,0,-1,0,0.00,0.00,0.283,0.101,9.956,-0.183,-0.427,0.244,28.96,8.36,8.41,1.0,8.4,1,1,1,1
2904602,1,0,1,0.000,0.000,0.000,0.000,0,0,1169,1363,0,0,-1,0,0.00,0.00,0.293,0.077,9.945,-0.183,-0.488,0.183,28.94,8.36,8.41,1.0,8.4,1,1,1,1
2914602,1,0,1,0.000,0.000,0.000,0.000,0,0,1169,1363,0,0,-1,0,0.00,0.00,0.280,0.075,9.965,-0.244,-0.549,0.244,28.93,8.35,8.41,0.8,6.3,1,1,1,1
2924609,1,0,1,0.000,0.000,0.000,0.000,0,0,1169,1363,0,0,-1,0,0.00,0.00,0.293,0.102,9.975,-0.183,-0.366,0.244,28.88,8.34,8.41,0.8,6.3,1,1,1,1
2934609,1,0,1,0.000,0.000,0.000,0.000,0,0,1169,1363,0,0,-1,0,0.00,0.00,0.300,0.085,9.945,-0.183,-0.305,0.183,28.92,8.34,8.41,1.0,8.4,1,1,1,1
2944609,1,0,1,0.000,0.000,0.000,0.000,0,0,1169,1363,0,0,-1,0,0.00,0.00,0.279,0.091,9.959,-0.183,-0.427,0.183,28.92,8.35,8.41,0.8,6.3,1,1,1,1
2954609,1,0,1,0.000,0.000,0.000,0.000,0,0,1169,1363,0,0,-1,0,0.00,0.00,0.279,0.097,9.962,-0.122,-0.366,0.244,28.94,8.34,8.41,1.0,8.4,1,1,1,1
2964609,1,0,1,0.000,0.000,0.000,0.000,0,0,1169,1363,0,0,-1,0,0.00,0.00,0.295,0.097,9.955,-0.183,-0.244,0.244,28.94,8.33,8.41,0.8,6.3,1,1,1,1
2974618,1,0,1,0.000,0.000,0.000,0.000,0,0,1169,1363,0,0,-1,0,0.00,0.00,0.286,0.098,9.969,-0.122,-0.244,0.183,28.96,8.35,8.42,1.0,8.4,1,1,1,1
2984618,1,0,1,0.000,0.000,0.000,0.000,0,0,1169,1363,0,0,-1,0,0.00,0.00,0.276,0.097,9.966,-0.183,-0.366,0.183,28.95,8.35,8.41,1.0,8.4,1,1,1,1
2994618,1,0,1,0.000,0.000,0.000,0.000,0,0,1169,1363,0,0,-1,0,0.00,0.00,0.258,0.099,9.963,-0.244,-0.305,0.244,28.92,8.35,8.41,1.0,8.4,1,1,1,1
3004624,1,0,1,0.000,0.000,0.000,0.000,0,0,1169,1363,0,0,-1,0,0.00,0.00,0.274,0.081,9.960,-0.183,-0.305,0.183,28.91,8.35,8.41,1.0,8.4,1,1,1,1
3014624,1,0,1,0.000,0.000,0.000,0.000,0,0,1169,1363,0,0,-1,0,0.00,0.00,0.273,0.099,9.941,-0.183,-0.366,0.183,28.92,8.35,8.41,1.0,8.4,1,1,1,1
3024624,1,0,1,0.000,0.000,0.000,0.000,0,0,1169,1363,0,0,-1,0,0.00,0.00,0.284,0.114,9.939,-0.183,-0.366,0.305,28.90,8.34,8.41,1.0,8.4,1,1,1,1
3034633,1,0,1,0.000,0.000,0.000,0.000,0,0,1169,1363,0,0,-1,0,0.00,0.00,0.286,0.083,9.965,-0.183,-0.366,0.244,28.95,8.35,8.41,1.0,8.4,1,1,1,1
3044633,1,0,1,0.000,0.000,0.000,0.000,0,0,1169,1363,0,0,-1,0,0.00,0.00,0.265,0.100,9.963,-0.183,-0.305,0.244,28.95,8.35,8.41,1.0,8.4,1,1,1,1
3054633,1,0,1,0.000,0.000,0.000,0.000,0,0,1169,1363,0,0,-1,0,0.00,0.00,0.284,0.089,9.968,-0.244,-0.305,0.244,28.95,8.34,8.41,1.0,8.4,1,1,1,1
3064633,1,0,1,0.000,0.000,0.000,0.000,0,0,1169,1363,0,0,-1,0,0.00,0.00,0.302,0.099,9.956,-0.183,-0.366,0.244,28.91,8.35,8.41,1.0,8.4,1,1,1,1
3074633,1,0,1,0.000,0.000,0.000,0.000,0,0,1169,1363,0,0,-1,0,0.00,0.00,0.280,0.081,9.962,-0.122,-0.305,0.244,28.92,8.33,8.41,1.0,8.4,1,1,1,1
3084639,1,0,1,0.000,0.000,0.000,0.000,0,0,1169,1363,0,0,-1,0,0.00,0.00,0.269,0.077,9.973,-0.122,-0.366,0.244,28.93,8.32,8.41,1.2,10.5,1,1,1,1
3094648,1,0,1,0.000,0.000,0.000,0.000,0,0,1169,1363,0,0,-1,0,0.00,0.00,0.269,0.101,9.970,-0.061,-0.366,0.183,28.94,8.35,8.41,0.8,6.3,1,1,1,1
3104655,1,0,1,0.000,0.000,0.000,0.000,0,0,1169,1363,0,0,-1,0,0.00,0.00,0.274,0.078,9.946,-0.122,-0.366,0.244,28.94,8.36,8.41,0.8,6.3,1,1,1,1
3114663,1,0,1,0.000,0.000,0.000,0.000,0,0,1169,1363,0,0,-1,0,0.00,0.00,0.283,0.085,9.957,-0.122,-0.366,0.305,28.89,8.35,8.41,1.0,8.4,1,1,1,1
3124663,1,0,1,0.000,0.000,0.000,0.000,0,0,1169,1363,0,0,-1,0,0.00,0.00,0.272,0.087,9.989,-0.061,-0.366,0.305,28.92,8.34,8.41,1.0,8.4,1,1,1,1
3134663,1,0,1,0.000,0.000,0.000,0.000,0,0,1169,1363,0,0,-1,0,0.00,0.00,0.269,0.087,9.952,-0.183,-0.366,0.244,28.92,8.35,8.41,0.8,6.3,1,1,1,1
3144663,1,0,1,0.000,0.000,0.000,0.000,0,0,1169,1363,0,0,-1,0,0.00,0.00,0.274,0.083,9.943,-0.183,-0.305,0.305,28.92,8.34,8.41,1.2,10.5,1,1,1,1
3154663,1,0,1,0.000,0.000,0.000,0.000,0,0,1169,1363,0,0,-1,0,0.00,0.00,0.280,0.104,9.959,-0.122,-0.305,0.183,28.93,8.35,8.41,1.0,8.4,1,1,1,1
3164670,1,0,1,0.000,0.000,0.000,0.000,0,0,1169,1363,0,0,-1,0,0.00,0.00,0.277,0.101,9.964,-0.122,-0.305,0.183,28.88,8.34,8.41,1.0,8.4,1,1,1,1
3174670,1,0,1,0.000,0.000,0.000,0.000,0,0,1169,1363,0,0,-1,0,0.00,0.00,0.285,0.099,9.960,-0.122,-0.366,0.244,28.94,8.34,8.41,1.0,8.4,1,1,1,1
3184670,1,0,1,0.000,0.000,0.000,0.000,0,0,1169,1363,0,0,-1,0,0.00,0.00,0.273,0.069,9.974,-0.183,-0.427,0.244,28.96,8.37,8.41,1.0,8.4,1,1,1,1
3194679,1,0,1,0.000,0.000,0.000,0.000,0,0,1169,1363,0,0,-1,0,0.00,0.00,0.286,0.087,9.976,-0.183,-0.427,0.244,28.95,8.35,8.41,1.0,8.4,1,1,1,1
3204687,1,0,1,0.000,0.000,0.000,0.000,0,0,1169,1363,0,0,-1,0,0.00,0.00,0.285,0.091,9.926,-0.244,-0.427,0.183,28.93,8.35,8.41,1.0,8.4,1,1,1,1
3214694,1,0,1,0.000,0.000,0.000,0.000,0,0,1169,1363,0,0,-1,0,0.00,0.00,0.259,0.092,9.962,-0.183,-0.366,0.305,28.91,8.35,8.41,1.0,8.4,1,1,1,1
3224694,1,0,1,0.000,0.000,0.000,0.000,0,0,1169,1363,0,0,-1,0,0.00,0.00,0.260,0.081,9.975,-0.122,-0.427,0.244,28.91,8.35,8.41,1.0,8.4,1,1,1,1
3234694,1,0,1,0.000,0.000,0.000,0.000,0,0,1169,1363,0,0,-1,0,0.00,0.00,0.262,0.089,9.941,-0.244,-0.427,0.305,28.93,8.35,8.42,1.0,8.4,1,1,1,1
3244694,1,0,1,0.000,0.000,0.000,0.000,0,0,1169,1363,0,0,-1,0,0.00,0.00,0.282,0.099,9.957,-0.244,-0.305,0.244,28.96,8.35,8.42,1.0,8.4,1,1,1,1
3254694,1,0,1,0.000,0.000,0.000,0.000,0,0,1169,1363,0,0,-1,0,0.00,0.00,0.273,0.097,9.960,-0.183,-0.366,0.305,28.95,8.35,8.41,1.0,8.4,1,1,1,1
3264694,1,0,1,0.000,0.000,0.000,0.000,0,0,1169,1363,0,0,-1,0,0.00,0.00,0.265,0.095,9.954,-0.183,-0.427,0.244,28.92,8.35,8.41,1.0,8.4,1,1,1,1
3274694,1,0,1,0.000,0.000,0.000,0.000,0,0,1169,1363,0,0,-1,0,0.00,0.00,0.300,0.114,9.956,-0.122,-0.366,0.305,28.92,8.34,8.41,1.0,8.4,1,1,1,1
3284707,1,0,1,0.000,0.000,0.000,0.000,0,0,1169,1363,0,0,-1,0,0.00,0.00,0.270,0.085,9.990,-0.244,-0.366,0.244,28.91,8.36,8.41,1.0,8.4,1,1,1,1
3294718,1,0,1,0.000,0.000,0.000,0.000,0,0,1169,1363,0,0,-1,0,0.00,0.00,0.254,0.079,9.954,-0.244,-0.244,0.244,28.93,8.34,8.41,1.0,8.4,1,1,1,1
3304724,1,0,1,0.000,0.000,0.000,0.000,0,0,1169,1363,0,0,-1,0,0.00,0.00,0.265,0.073,9.961,-0.244,-0.244,0.244,28.88,8.34,8.41,1.0,8.4,1,1,1,1
3314733,1,0,1,0.000,0.000,0.000,0.000,0,0,1169,1362,0,-1,-1,-1,0.00,0.00,0.288,0.089,9.949,-0.183,-0.305,0.244,28.96,8.34,8.41,1.0,8.4,1,1,1,1
3324733,1,0,1,0.000,0.000,0.000,0.000,0,0,1169,1363,0,1,-1,0,0.00,0.00,0.281,0.086,9.968,-0.122,-0.366,0.244,28.88,8.35,8.41,1.0,8.4,1,1,1,1
3334740,1,0,1,0.000,0.000,0.000,0.000,0,0,1169,1363,0,0,-1,0,0.00,0.00,0.287,0.093,9.971,-0.183,-0.366,0.305,28.88,8.35,8.41,0.8,6.3,1,1,1,1
3344748,1,0,1,0.000,0.000,0.000,0.000,0,0,1169,1363,0,0,-1,0,0.00,0.00,0.284,0.091,9.966,-0.183,-0.427,0.305,28.90,8.35,8.41,0.8,6.3,1,1,1,1
3354748,1,0,1,0.000,0.000,0.000,0.000,0,0,1169,1363,0,0,-1,0,0.00,0.00,0.292,0.077,9.963,-0.183,-0.366,0.244,28.95,8.34,8.41,1.0,8.4,1,1,1,1
3364748,1,0,1,0.000,0.000,0.000,0.000,0,0,1169,1363,0,0,-1,0,0.00,0.00,0.283,0.081,9.989,-0.183,-0.305,0.305,28.88,8.34,8.41,0.8,6.3,1,1,1,1
3374755,1,0,1,0.000,0.000,0.000,0.000,0,0,1169,1363,0,0,-1,0,0.00,0.00,0.279,0.090,9.977,-0.244,-0.305,0.244,28.97,8.35,8.41,1.0,8.4,1,1,1,1
3384755,1,0,1,0.000,0.000,0.000,0.000,0,0,1169,1363,0,0,-1,0,0.00,0.00,0.271,0.093,9.956,-0.183,-0.305,0.244,28.94,8.35,8.41,1.0,8.4,1,1,1,1
3394763,1,0,1,0.000,0.000,0.000,0.000,0,0,1169,1363,0,0,-1,0,0.00,0.00,0.267,0.088,9.968,-0.122,-0.305,0.244,28.92,8.35,8.41,1.0,8.4,1,1,1,1
3404763,1,0,1,0.000,0.000,0.000,0.000,0,0,1169,1363,0,0,-1,0,0.00,0.00,0.263,0.091,9.951,-0.183,-0.305,0.244,28.93,8.34,8.41,1.0,8.4,1,1,1,1
3414763,1,0,1,0.000,0.000,0.000,0.000,0,0,1168,1363,1,0,0,0,0.00,0.00,0.278,0.075,9.970,-0.183,-0.305,0.305,28.93,8.34,8.41,1.0,8.4,1,1,1,1
3424763,1,0,1,0.000,0.000,0.000,0.000,0,0,1169,1363,-1,0,-1,0,0.00,0.00,0.288,0.078,9.967,-0.183,-0.305,0.244,28.91,8.35,8.41,1.0,8.4,1,1,1,1
3434763,1,0,1,0.000,0.000,0.000,0.000,0,0,1169,1363,0,0,-1,0,0.00,0.00,0.293,0.091,9.965,-0.122,-0.305,0.244,28.89,8.34,8.41,1.0,8.4,1,1,1,1
3444763,1,0,1,0.000,0.000,0.000,0.000,0,0,1168,1363,1,0,0,0,0.00,0.00,0.273,0.093,9.962,-0.061,-0.305,0.183,28.93,8.35,8.41,1.0,8.4,1,1,1,1
3454770,1,0,1,0.000,0.000,0.000,0.000,0,0,1169,1362,-1,-1,-1,-1,0.00,0.00,0.270,0.075,9.946,-0.183,-0.427,0.183,28.94,8.35,8.41,1.0,8.4,1,1,1,1
3464778,1,0,1,0.000,0.000,0.000,0.000,0,0,1169,1363,0,1,-1,0,0.00,0.00,0.268,0.086,9.975,-0.183,-0.366,0.244,28.89,8.35,8.41,1.0,8.4,1,1,1,1
3474785,1,0,1,0.000,0.000,0.000,0.000,0,0,1169,1363,0,0,-1,0,0.00,0.00,0.274,0.080,9.950,-0.183,-0.366,0.305,28.93,8.35,8.41,1.0,8.4,1,1,1,1
3484794,1,0,1,0.000,0.000,0.000,0.000,0,0,1169,1363,0,0,-1,0,0.00,0.00,0.268,0.096,9.962,-0.122,-0.366,0.244,28.94,8.34,8.41,1.0,8.4,1,1,1,1
3494800,1,0,1,0.000,0.000,0.000,0.000,0,0,1169,1363,0,0,-1,0,0.00,0.00,0.275,0.092,9.959,-0.061,-0.366,0.244,28.91,8.34,8.41,1.0,8.4,1,1,1,1
3504800,1,0,1,0.000,0.000,0.000,0.000,0,0,1169,1363,0,0,-1,0,0.00,0.00,0.278,0.095,9.975,-0.244,-0.305,0.305,28.95,8.35,8.41,1.0,8.4,1,1,1,1
3514809,1,0,1,0.000,0.000,0.000,0.000,0,0,1169,1363,0,0,-1,0,0.00,0.00,0.271,0.098,9.946,-0.183,-0.366,0.183,28.92,8.35,8.42,1.0,8.4,1,1,1,1
3524815,1,0,1,0.000,0.000,0.000,0.000,0,0,1169,1363,0,0,-1,0,0.00,0.00,0.274,0.075,9.940,-0.061,-0.305,0.305,28.95,8.35,8.41,1.0,8.4,1,1,1,1
3534815,1,0,1,0.000,0.000,0.000,0.000,0,0,1169,1363,0,0,-1,0,0.00,0.00,0.284,0.077,9.968,-0.183,-0.366,0.244,28.95,8.35,8.41,1.0,8.4,1,1,1,1
3544824,1,0,1,0.000,0.000,0.000,0.000,0,0,1169,1363,0,0,-1,0,0.00,0.00,0.288,0.095,9.971,-0.244,-0.366,0.305,28.95,8.34,8.42,1.0,8.4,1,1,1,1
3554831,1,0,1,0.000,0.000,0.000,0.000,0,0,1169,1363,0,0,-1,0,0.00,0.00,0.285,0.087,9.968,-0.122,-0.305,0.305,28.92,8.35,8.41,0.8,6.3,1,1,1,1
3564839,1,0,1,0.000,0.000,0.000,0.000,0,0,1169,1363,0,0,-1,0,0.00,0.00,0.292,0.093,9.968,-0.183,-0.488,0.183,28.95,8.34,8.41,1.0,8.4,1,1,1,1
3574846,1,0,1,0.000,0.000,0.000,0.000,0,0,1169,1363,0,0,-1,0,0.00,0.00,0.270,0.083,9.960,-0.183,-0.366,0.183,28.93,8.35,8.41,0.8,6.3,1,1,1,1
3584857,1,0,1,0.000,0.000,0.000,0.000,0,0,1169,1363,0,0,-1,0,0.00,0.00,0.278,0.096,9.967,-0.183,-0.305,0.244,28.96,8.34,8.41,1.0,8.4,1,1,1,1
3594861,1,0,1,0.000,0.000,0.000,0.000,0,0,1168,1363,1,0,0,0,0.00,0.00,0.281,0.096,9.972,-0.122,-0.244,0.183,28.95,8.35,8.42,1.0,8.4,1,1,1,1
3604861,1,0,1,0.000,0.000,0.000,0.000,0,0,1169,1363,-1,0,-1,0,0.00,0.00,0.290,0.084,9.978,-0.183,-0.244,0.244,28.95,8.34,8.42,1.0,8.4,1,1,1,1
3614869,1,0,1,0.000,0.000,0.000,0.000,0,0,1169,1363,0,0,-1,0,0.00,0.00,0.281,0.096,9.966,-0.183,-0.366,0.305,28.91,8.34,8.41,1.0,8.4,1,1,1,1
3624876,1,0,1,0.000,0.000,0.000,0.000,0,0,1169,1363,0,0,-1,0,0.00,0.00,0.287,0.102,9.966,-0.183,-0.305,0.244,28.91,8.35,8.41,1.0,8.4,1,1,1,1
3634876,1,0,1,0.000,0.000,0.000,0.000,0,0,1169,1363,0,0,-1,0,0.00,0.00,0.260,0.081,9.942,-0.183,-0.305,0.305,28.95,8.35,8.41,1.0,8.4,1,1,1,1
3644876,1,0,1,0.000,0.000,0.000,0.000,0,0,1169,1363,0,0,-1,0,0.00,0.00,0.274,0.083,9.973,-0.183,-0.366,0.244,28.96,8.35,8.42,1.0,8.4,1,1,1,1
3654876,1,0,1,0.000,0.000,0.000,0.000,0,0,1169,1362,0,-1,-1,-1,0.00,0.00,0.287,0.089,9.976,-0.183,-0.366,0.244,28.90,8.35,8.42,1.0,8.4,1,1,1,1
3664876,1,0,1,0.000,0.000,0.000,0.000,0,0,1169,1363,0,1,-1,0,0.00,0.00,0.280,0.089,9.980,-0.183,-0.366,0.244,28.94,8.34,8.41,1.0,8.4,1,1,1,1
3674885,1,0,1,0.000,0.000,0.000,0.000,0,0,1169,1363,0,0,-1,0,0.00,0.00,0.269,0.075,9.979,-0.183,-0.305,0.183,28.92,8.35,8.41,1.2,10.5,1,1,1,1
3684891,1,0,1,0.000,0.000,0.000,0.000,0,0,1169,1362,0,-1,-1,-1,0.00,-0.29,0.282,0.087,9.974,-0.183,-0.305,0.183,28.92,8.34,8.42,1.0,8.4,1,1,1,1
3694891,1,0,1,0.000,0.000,0.000,0.000,0,0,1169,1363,0,1,-1,0,0.00,-0.29,0.291,0.092,9.978,-0.183,-0.244,0.244,28.91,8.35,8.41,1.0,8.4,1,1,1,1
3704900,1,0,1,0.000,0.000,0.000,0.000,0,0,1169,1363,0,0,-1,0,0.00,-0.29,0.273,0.089,9.960,-0.122,-0.305,0.183,28.91,8.36,8.41,1.0,8.4,1,1,1,1
3714906,1,0,1,0.000,0.000,0.000,0.000,0,0,1169,1363,0,0,-1,0,0.00,-0.29,0.268,0.098,9.941,-0.122,-0.366,0.183,28.93,8.35,8.42,1.0,8.4,1,1,1,1
3724906,1,0,1,0.000,0.000,0.000,0.000,0,0,1169,1363,0,0,-1,0,0.00,-0.29,0.277,0.095,9.946,-0.122,-0.366,0.244,28.93,8.35,8.42,1.0,8.4,1,1,1,1
3734915,1,0,1,0.000,0.000,0.000,0.000,0,0,1169,1363,0,0,-1,0,0.00,0.29,0.262,0.092,9.949,-0.122,-0.427,0.244,28.96,8.35,8.41,1.0,8.4,1,1,1,1
3744915,1,0,1,0.000,0.000,0.000,0.000,0,0,1169,1363,0,0,-1,0,0.00,0.29,0.286,0.096,9.949,-0.122,-0.366,0.305,28.99,8.35,8.41,1.0,8.4,1,1,1,1
3754915,1,0,1,0.000,0.000,0.000,0.000,0,0,1169,1362,0,-1,-1,-1,0.00,0.29,0.278,0.101,9.954,-0.183,-0.366,0.183,28.94,8.34,8.41,1.0,8.4,1,1,1,1
3764922,1,0,1,0.000,0.000,0.000,0.000,0,0,1168,1363,1,1,0,0,0.00,0.29,0.266,0.084,9.972,-0.122,-0.305,0.244,28.91,8.34,8.41,1.0,8.4,1,1,1,1
3774930,1,0,1,0.000,0.000,0.000,0.000,0,0,1168,1363,0,0,0,0,0.00,0.29,0.286,0.089,9.973,-0.244,-0.244,0.244,28.95,8.33,8.41,1.0,8.4,1,1,1,1
3784937,1,0,1,0.000,0.000,0.000,0.000,1,1,1169,1363,-1,0,-1,0,0.00,0.00,0.274,0.090,9.978,-0.122,-0.366,0.305,28.92,8.35,8.42,0.8,6.3,1,1,1,1
3794937,1,0,1,0.000,0.000,0.000,0.000,1,1,1169,1363,0,0,-1,0,0.00,0.00,0.278,0.092,9.980,-0.122,-0.366,0.244,28.94,8.35,8.41,0.8,6.3,1,1,1,1
3804937,1,0,1,0.000,0.000,0.000,0.000,1,1,1169,1363,0,0,-1,0,0.00,0.00,0.293,0.071,9.974,-0.122,-0.366,0.244,28.97,8.34,8.42,0.8,6.3,1,1,1,1
3814937,1,0,1,0.000,0.000,0.000,0.000,1,1,1169,1363,0,0,-1,0,0.00,0.00,0.305,0.094,9.960,-0.122,-0.366,0.305,28.98,8.35,8.41,1.0,8.4,1,1,1,1
3824937,1,0,1,0.000,0.000,0.000,0.000,1,1,1169,1363,0,0,-1,0,0.00,0.00,0.291,0.113,9.973,-0.122,-0.366,0.244,28.93,8.35,8.41,1.0,8.4,1,1,1,1
3834937,1,0,1,0.000,0.000,0.000,0.000,1,1,1169,1363,0,0,-1,0,0.00,0.00,0.269,0.092,9.973,-0.244,-0.305,0.244,28.99,8.35,8.42,1.0,8.4,1,1,1,1
3844937,1,0,1,0.000,0.000,0.000,0.000,1,1,1169,1363,0,0,-1,0,0.00,0.00,0.294,0.108,9.962,-0.244,-0.305,0.244,28.88,8.34,8.42,0.8,6.3,1,1,1,1
3854937,1,0,1,0.000,0.000,0.000,0.000,1,1,1169,1363,0,0,-1,0,0.00,0.00,0.291,0.093,9.943,-0.061,-0.366,0.183,28.92,8.35,8.42,1.0,8.4,1,1,1,1
3864947,1,0,1,0.000,0.000,0.000,0.000,1,1,1169,1363,0,0,-1,0,0.00,0.00,0.274,0.089,9.980,-0.122,-0.366,0.122,28.99,8.32,8.41,0.8,6.3,1,1,1,1
3874960,1,0,1,0.000,0.000,0.000,0.000,1,1,1169,1363,0,0,-1,0,0.00,0.00,0.275,0.090,9.972,-0.183,-0.305,0.244,28.94,8.34,8.41,1.0,8.4,1,1,1,1
3884967,1,0,1,0.000,0.000,0.000,0.000,1,1,1169,1363,0,0,-1,0,0.00,0.00,0.274,0.099,9.966,-0.183,-0.305,0.244,28.91,8.34,8.41,1.0,8.4,1,1,1,1
3894967,1,0,1,0.000,0.000,0.000,0.000,1,1,1169,1363,0,0,-1,0,0.00,0.00,0.264,0.108,9.972,-0.122,-0.305,0.244,28.95,8.35,8.41,1.0,8.4,1,1,1,1
3904967,1,0,1,0.000,0.000,0.000,0.000,1,1,1169,1363,0,0,-1,0,0.00,0.00,0.269,0.099,9.969,-0.122,-0.366,0.244,28.95,8.35,8.41,0.8,6.3,1,1,1,1
3914967,1,0,1,0.000,0.000,0.000,0.000,1,1,1169,1363,0,0,-1,0,0.00,0.00,0.286,0.099,9.961,-0.183,-0.366,0.305,28.94,8.35,8.41,0.8,6.3,1,1,1,1
3924967,1,0,1,0.000,0.000,0.000,0.000,1,1,1169,1363,0,0,-1,0,0.00,0.00,0.281,0.098,9.951,-0.183,-0.366,0.244,28.94,8.34,8.41,1.0,8.4,1,1,1,1
3934967,1,0,1,0.000,0.000,0.000,0.000,1,1,1169,1363,0,0,-1,0,0.00,0.00,0.266,0.087,9.962,-0.183,-0.366,0.305,28.91,8.34,8.41,1.0,8.4,1,1,1,1
3944976,1,0,1,0.000,0.000,0.000,0.000,1,1,1169,1363,0,0,-1,0,0.00,0.00,0.272,0.090,9.952,-0.122,-0.366,0.244,28.91,8.35,8.41,1.0,8.4,1,1,1,1
3954976,1,0,1,0.000,0.000,0.000,0.000,1,1,1169,1363,0,0,-1,0,0.00,0.00,0.290,0.078,9.962,-0.122,-0.366,0.183,28.93,8.35,8.41,1.0,8.4,1,1,1,1
3964976,1,0,1,0.000,0.000,0.000,0.000,1,1,1169,1363,0,0,-1,0,0.00,0.00,0.283,0.086,9.949,-0.122,-0.305,0.244,28.95,8.34,8.41,1.0,8.4,1,1,1,1
3974982,1,0,1,0.000,0.000,0.000,0.000,1,1,1169,1363,0,0,-1,0,0.00,0.00,0.284,0.086,9.956,-0.122,-0.366,0.305,28.93,8.34,8.42,0.8,6.3,1,1,1,1
3984991,1,0,1,0.000,0.000,0.000,0.000,1,1,1169,1363,0,0,-1,0,0.00,0.00,0.290,0.102,9.969,-0.183,-0.305,0.244,28.93,8.34,8.41,0.8,6.3,1,1,1,1
3994997,1,0,1,0.000,0.000,0.000,0.000,1,1,1169,1363,0,0,-1,0,0.00,0.00,0.290,0.085,9.973,-0.183,-0.305,0.366,28.95,8.35,8.41,1.0,8.4,1,1,1,1
4005006,1,0,1,0.000,0.000,0.000,0.000,1,1,1169,1363,0,0,-1,0,0.00,0.00,0.283,0.071,9.969,-0.244,-0.366,0.305,28.91,8.35,8.41,1.0,8.4,1,1,1,1
4015006,1,0,1,0.000,0.000,0.000,0.000,1,1,1169,1363,0,0,-1,0,0.00,0.00,0.279,0.090,9.964,-0.122,-0.366,0.244,28.93,8.34,8.41,1.0,8.4,1,1,1,1
4025013,1,0,1,0.000,0.000,0.000,0.000,1,1,1169,1363,0,0,-1,0,0.00,0.00,0.283,0.081,9.957,-0.122,-0.366,0.305,28.92,8.35,8.41,0.8,6.3,1,1,1,1
4035013,1,0,1,0.000,0.000,0.000,0.000,1,1,1169,1363,0,0,-1,0,0.00,0.00,0.268,0.081,9.972,-0.061,-0.366,0.305,28.94,8.35,8.41,1.0,8.4,1,1,1,1
4045021,1,0,1,0.000,0.000,0.000,0.000,1,1,1169,1363,0,0,-1,0,0.00,0.00,0.272,0.090,9.954,-0.183,-0.366,0.122,28.92,8.35,8.41,0.8,6.3,1,1,1,1
4055021,1,0,1,0.000,0.000,0.000,0.000,1,1,1169,1363,0,0,-1,0,0.00,0.00,0.272,0.074,9.960,-0.244,-0.305,0.244,28.94,8.35,8.41,1.0,8.4,1,1,1,1
4065028,1,0,1,0.000,0.000,0.000,0.000,1,1,1169,1363,0,0,-1,0,0.00,0.00,0.297,0.082,9.957,-0.244,-0.305,0.305,28.93,8.34,8.41,1.0,8.4,1,1,1,1
4075028,1,0,1,0.000,0.000,0.000,0.000,1,1,1169,1363,0,0,-1,0,0.00,0.00,0.283,0.089,9.972,-0.244,-0.366,0.244,28.94,8.36,8.42,1.0,8.4,1,1,1,1
4085028,1,0,1,0.000,0.000,0.000,0.000,1,1,1169,1363,0,0,-1,0,0.00,0.00,0.294,0.084,9.965,-0.183,-0.366,0.305,28.96,8.35,8.42,1.0,8.4,1,1,1,1
4095028,1,0,1,0.000,0.000,0.000,0.000,1,1,1169,1363,0,0,-1,0,0.00,0.00,0.302,0.110,9.955,-0.061,-0.366,0.244,28.97,8.35,8.41,0.8,6.3,1,1,1,1
4105036,1,0,1,0.000,0.000,0.000,0.000,1,1,1169,1363,0,0,-1,0,0.00,0.00,0.282,0.107,9.956,-0.122,-0.305,0.305,28.88,8.34,8.41,0.8,6.3,1,1,1,1
4115043,1,0,1,0.000,0.000,0.000,0.000,1,1,1169,1363,0,0,-1,0,0.00,0.00,0.273,0.094,9.955,-0.183,-0.366,0.122,28.88,8.35,8.41,1.0,8.4,1,1,1,1
4125051,1,0,1,0.000,0.000,0.000,0.000,1,1,1169,1363,0,0,-1,0,0.00,0.00,0.273,0.090,9.981,-0.244,-0.366,0.244,28.96,8.35,8.41,0.8,6.3,1,1,1,1
4135052,1,0,1,0.000,0.000,0.000,0.000,1,1,1169,1363,0,0,-1,0,0.00,0.00,0.271,0.069,9.978,-0.122,-0.366,0.305,28.96,8.35,8.41,1.0,8.4,1,1,1,1
4145058,1,0,1,0.000,0.000,0.000,0.000,1,1,1169,1363,0,0,-1,0,0.00,0.00,0.283,0.075,9.976,-0.244,-0.366,0.305,28.93,8.35,8.41,1.0,8.4,1,1,1,1
4155067,1,0,1,0.000,0.000,0.000,0.000,1,1,1169,1363,0,0,-1,0,0.00,0.00,0.283,0.081,9.959,-0.183,-0.305,0.244,28.93,8.34,8.42,0.8,6.3,1,1,1,1
4165080,1,0,1,0.000,0.000,0.000,0.000,1,1,1169,1363,0,0,-1,0,0.00,0.00,0.286,0.076,9.949,-0.183,-0.366,0.305,28.96,8.34,8.41,0.8,6.3,1,1,1,1
4175082,1,0,1,0.000,0.000,0.000,0.000,1,1,1169,1363,0,0,-1,0,0.00,0.00,0.277,0.081,9.937,-0.183,-0.305,0.244,28.92,8.35,8.41,1.0,8.4,1,1,1,1
4185082,1,0,1,0.000,0.000,0.000,0.000,1,1,1169,1363,0,0,-1,0,0.00,0.00,0.289,0.089,9.940,-0.183,-0.244,0.305,28.94,8.35,8.41,1.0,8.4,1,1,1,1
4195089,1,0,1,0.000,0.000,0.000,0.000,1,1,1169,1363,0,0,-1,0,0.00,0.00,0.282,0.096,9.958,-0.183,-0.305,0.305,28.95,8.35,8.41,1.0,8.4,1,1,1,1
4205097,1,0,1,0.000,0.000,0.000,0.000,1,1,1169,1363,0,0,-1,0,0.00,0.00,0.286,0.079,9.959,-0.122,-0.366,0.244,28.92,8.35,8.41,0.8,6.3,1,1,1,1
4215097,1,0,1,0.000,0.000,0.000,0.000,1,1,1169,1363,0,0,-1,0,0.00,0.00,0.270,0.089,9.948,-0.244,-0.305,0.244,28.99,8.35,8.42,0.8,6.3,1,1,1,1
4225104,1,0,1,0.000,0.000,0.000,0.000,1,1,1169,1363,0,0,-1,0,0.00,0.00,0.286,0.084,9.965,-0.122,-0.366,0.244,28.96,8.35,8.41,1.0,8.4,1,1,1,1
4235104,1,0,1,0.000,0.000,0.000,0.000,1,1,1169,1362,0,-1,-1,-1,0.00,-0.29,0.284,0.086,9.975,-0.122,-0.305,0.244,28.92,8.35,8.42,0.8,6.3,1,1,1,1
4245104,1,0,1,0.000,0.000,0.000,0.000,1,1,1169,1363,0,1,-1,0,0.00,-0.29,0.269,0.090,9.955,-0.061,-0.366,0.305,28.90,8.35,8.41,0.8,6.3,1,1,1,1
4255104,1,0,1,0.000,0.000,0.000,0.000,1,1,1169,1363,0,0,-1,0,0.00,-0.29,0.276,0.096,9.943,-0.244,-0.366,0.244,28.89,8.35,8.41,1.0,8.4,1,1,1,1
4265112,1,0,1,0.000,0.000,0.000,0.000,1,1,1169,1363,0,0,-1,0,0.00,-0.29,0.282,0.072,9.944,-0.183,-0.366,0.244,28.97,8.35,8.41,0.8,6.3,1,1,1,1
4275119,1,0,1,0.000,0.000,0.000,0.000,1,1,1169,1363,0,0,-1,0,0.00,-0.29,0.288,0.085,9.963,-0.122,-0.366,0.183,28.93,8.35,8.42,1.0,8.4,1,1,1,1
4285128,1,0,1,0.000,0.000,0.000,0.000,1,1,1169,1363,0,0,-1,0,0.00,0.29,0.277,0.090,9.978,-0.061,-0.305,0.305,28.95,8.37,8.41,0.8,6.3,1,1,1,1
4295143,1,0,1,0.000,0.000,0.000,0.000,1,1,1169,1362,0,-1,-1,-1,0.00,0.29,0.280,0.096,9.966,-0.183,-0.305,0.366,28.97,8.34,8.41,1.0,8.4,1,1,1,1
4305143,1,0,1,0.000,0.000,0.000,0.000,1,1,1169,1363,0,1,-1,0,0.00,0.29,0.280,0.084,9.938,-0.183,-0.244,0.305,28.91,8.33,8.41,1.0,8.4,1,1,1,1
4315149,1,0,1,0.000,0.000,0.000,0.000,1,1,1169,1363,0,0,-1,0,0.00,0.29,0.281,0.099,9.958,-0.183,-0.366,0.244,28.91,8.35,8.41,1.0,8.4,1,1,1,1
4325158,1,0,1,0.000,0.000,0.000,0.000,1,1,1169,1362,0,-1,-1,-1,0.00,0.29,0.283,0.088,9.965,-0.122,-0.427,0.366,28.92,8.35,8.42,1.0,8.4,1,1,1,1
4335158,1,0,1,0.000,0.000,0.000,0.000,1,1,1169,1363,0,1,-1,0,0.00,0.00,0.284,0.096,9.962,-0.183,-0.427,0.122,28.90,8.34,8.41,1.0,8.4,1,1,1,1
4345164,1,0,1,0.000,0.000,0.000,0.000,1,1,1169,1363,0,0,-1,0,0.00,0.00,0.265,0.093,9.966,-0.183,-0.427,0.183,28.93,8.35,8.41,0.8,6.3,1,1,1,1
4355164,1,0,1,0.000,0.000,0.000,0.000,1,1,1169,1363,0,0,-1,0,0.00,0.00,0.278,0.093,9.966,-0.122,-0.488,0.305,28.95,8.36,8.41,1.0,8.4,1,1,1,1
4365164,1,0,1,0.000,0.000,0.000,0.000,1,1,1169,1363,0,0,-1,0,0.00,0.00,0.280,0.089,9.969,-0.244,-0.427,0.244,28.91,8.33,8.41,1.0,8.4,1,1,1,1
4375164,1,0,1,0.000,0.000,0.000,0.000,1,1,1169,1363,0,0,-1,0,0.00,0.00,0.257,0.091,9.976,-0.183,-0.366,0.183,28.92,8.33,8.41,1.0,8.4,1,1,1,1
4385164,1,0,1,0.000,0.000,0.000,0.000,1,1,1169,1363,0,0,-1,0,0.00,0.00,0.277,0.073,9.983,-0.122,-0.305,0.244,28.93,8.34,8.41,1.0,8.4,1,1,1,1
4395164,1,0,1,0.000,0.000,0.000,0.000,1,1,1169,1363,0,0,-1,0,0.00,0.00,0.287,0.087,9.976,-0.122,-0.366,0.305,28.93,8.35,8.41,0.8,6.3,1,1,1,1
4405173,1,0,1,0.000,0.000,0.000,0.000,1,1,1169,1363,0,0,-1,0,0.00,0.00,0.293,0.089,9.953,-0.122,-0.305,0.305,28.96,8.36,8.41,0.8,6.3,1,1,1,1
4415173,1,0,1,0.000,0.000,0.000,0.000,1,1,1169,1363,0,0,-1,0,0.00,0.00,0.275,0.094,9.975,-0.183,-0.244,0.244,28.91,8.35,8.42,0.8,6.3,1,1,1,1
4425173,1,0,1,0.000,0.000,0.000,0.000,1,1,1169,1363,0,0,-1,0,0.00,0.00,0.287,0.089,9.972,-0.122,-0.366,0.244,28.93,8.35,8.41,1.0,8.4,1,1,1,1
4435184,1,0,1,0.000,0.000,0.000,0.000,1,1,1169,1363,0,0,-1,0,0.00,0.00,0.284,0.090,9.959,-0.061,-0.366,0.183,28.91,8.31,8.41,1.0,8.4,1,1,1,1
4445184,1,0,1,0.000,0.000,0.000,0.000,1,1,1169,1363,0,0,-1,0,0.00,0.00,0.284,0.087,9.970,-0.061,-0.366,0.305,28.95,8.35,8.41,1.0,8.4,1,1,1,1
4455184,1,0,1,0.000,0.000,0.000,0.000,1,1,1169,1363,0,0,-1,0,0.00,0.00,0.281,0.083,9.970,-0.122,-0.305,0.244,28.93,8.34,8.41,0.8,6.3,1,1,1,1
4465184,1,0,1,0.000,0.000,0.000,0.000,1,1,1169,1362,0,-1,-1,-1,0.00,0.00,0.279,0.089,9.964,-0.183,-0.305,0.305,28.89,8.33,8.41,0.8,6.3,1,1,1,1
4475184,1,0,1,0.000,0.000,0.000,0.000,1,1,1169,1363,0,1,-1,0,0.00,0.00,0.268,0.089,9.978,-0.183,-0.244,0.305,28.95,8.35,8.41,0.8,6.3,1,1,1,1
4485193,1,0,1,0.000,0.000,0.000,0.000,1,1,1169,1363,0,0,-1,0,0.00,0.00,0.300,0.103,9.971,-0.122,-0.366,0.183,28.94,8.35,8.41,1.0,8.4,1,1,1,1
4495193,1,0,1,0.000,0.000,0.000,0.000,1,1,1169,1363,0,0,-1,0,0.00,0.00,0.284,0.081,9.973,-0.183,-0.427,0.244,28.94,8.35,8.42,1.0,8.4,1,1,1,1
4505199,1,0,1,0.000,0.000,0.000,0.000,1,1,1169,1363,0,0,-1,0,0.00,0.00,0.284,0.080,9.965,-0.244,-0.366,0.244,28.94,8.34,8.41,0.8,6.3,1,1,1,1
4515199,1,0,1,0.000,0.000,0.000,0.000,1,1,1169,1363,0,0,-1,0,0.00,0.00,0.284,0.092,9.962,-0.305,-0.366,0.244,28.90,8.35,8.41,1.0,8.4,1,1,1,1
4525199,1,0,1,0.000,0.000,0.000,0.000,1,1,1169,1363,0,0,-1,0,0.00,0.00,0.277,0.090,9.965,-0.244,-0.366,0.244,28.97,8.35,8.41,0.8,6.3,1,1,1,1
4535208,1,0,1,0.000,0.000,0.000,0.000,1,1,1169,1363,0,0,-1,0,0.00,0.00,0.281,0.088,9.962,-0.183,-0.305,0.305,28.93,8.34,8.41,1.0,8.4,1,1,1,1
4545214,1,0,1,0.000,0.000,0.000,0.000,1,1,1169,1363,0,0,-1,0,0.00,0.00,0.285,0.074,9.945,-0.244,-0.305,0.244,28.95,8.34,8.42,0.8,6.3,1,1,1,1
4555214,1,0,1,0.000,0.000,0.000,0.000,1,1,1169,1363,0,0,-1,0,0.00,0.00,0.287,0.095,9.955,-0.183,-0.305,0.183,28.95,8.35,8.41,1.0,8.4,1,1,1,1
4565214,1,0,1,0.000,0.000,0.000,0.000,1,1,1169,1363,0,0,-1,0,0.00,0.00,0.278,0.084,9.971,-0.244,-0.366,0.244,28.95,8.34,8.41,1.0,8.4,1,1,1,1
4575223,1,0,1,0.000,0.000,0.000,0.000,1,1,1169,1363,0,0,-1,0,0.00,0.00,0.287,0.075,9.949,-0.244,-0.488,0.244,28.93,8.34,8.41,0.8,6.3,1,1,1,1
4585236,1,0,1,0.000,0.000,0.000,0.000,1,1,1169,1363,0,0,-1,0,0.00,0.00,0.275,0.094,9.941,-0.244,-0.366,0.244,28.98,8.34,8.41,1.0,8.4,1,1,1,1
4595238,1,0,1,0.000,0.000,0.000,0.000,1,1,1169,1363,0,0,-1,0,0.00,0.00,0.277,0.087,9.961,-0.183,-0.366,0.244,28.92,8.35,8.41,1.0,8.4,1,1,1,1
4605238,1,0,1,0.000,0.000,0.000,0.000,1,1,1169,1363,0,0,-1,0,0.00,0.00,0.261,0.089,9.949,-0.183,-0.305,0.183,28.96,8.34,8.41,1.0,8.4,1,1,1,1
4615238,1,0,1,0.000,0.000,0.000,0.000,1,1,1169,1363,0,0,-1,0,0.00,0.00,0.284,0.092,9.956,-0.183,-0.366,0.244,28.97,8.30,8.41,0.8,6.3,1,1,1,1
4625245,1,0,1,0.000,0.000,0.000,0.000,1,1,1169,1363,0,0,-1,0,0.00,0.00,0.265,0.093,9.980,-0.305,-0.244,0.305,28.92,8.35,8.41,1.0,8.4,1,1,1,1
4635254,1,0,1,0.000,0.000,0.000,0.000,1,1,1169,1363,0,0,-1,0,0.00,0.00,0.270,0.084,9.965,-0.122,-0.305,0.183,28.92,8.35,8.41,1.0,8.4,1,1,1,1
4645260,1,0,1,0.000,0.000,0.000,0.000,1,1,1169,1363,0,0,-1,0,0.00,0.00,0.280,0.069,9.944,-0.183,-0.366,0.183,28.92,8.32,8.42,0.8,6.3,1,1,1,1
4655269,1,0,1,0.000,0.000,0.000,0.000,1,1,1169,1363,0,0,-1,0,0.00,0.00,0.277,0.095,9.951,-0.183,-0.366,0.244,28.95,8.34,8.41,1.0,8.4,1,1,1,1
4665275,1,0,1,0.000,0.000,0.000,0.000,1,1,1169,1363,0,0,-1,0,0.00,0.00,0.280,0.084,9.966,-0.122,-0.366,0.244,28.93,8.34,8.41,1.0,8.4,1,1,1,1
4675284,1,0,1,0.000,0.000,0.000,0.000,1,1,1169,1363,0,0,-1,0,0.00,0.00,0.281,0.075,9.964,-0.183,-0.366,0.305,28.95,8.32,8.41,0.8,6.3,1,1,1,1
4685284,1,0,1,0.000,0.000,0.000,0.000,1,1,1169,1363,0,0,-1,0,0.00,0.00,0.287,0.100,9.960,-0.244,-0.366,0.305,28.88,8.35,8.41,1.0,8.4,1,1,1,1
4695284,1,0,1,0.000,0.000,0.000,0.000,1,1,1169,1363,0,0,-1,0,0.00,0.00,0.274,0.096,9.972,-0.061,-0.366,0.305,28.93,8.33,8.41,1.0,8.4,1,1,1,1
4705290,1,0,1,0.000,0.000,0.000,0.000,1,1,1169,1363,0,0,-1,0,0.00,0.00,0.280,0.080,9.960,-0.183,-0.366,0.366,28.93,8.35,8.42,1.0,8.4,1,1,1,1
4715290,1,0,1,0.000,0.000,0.000,0.000,1,1,1169,1363,0,0,-1,0,0.00,0.00,0.274,0.095,9.967,-0.183,-0.366,0.305,28.96,8.31,8.41,1.0,8.4,1,1,1,1
4725299,1,0,1,0.000,0.000,0.000,0.000,1,1,1169,1363,0,0,-1,0,0.00,0.00,0.277,0.081,9.965,-0.061,-0.244,0.305,28.94,8.35,8.41,1.0,8.4,1,1,1,1
4735306,1,0,1,0.000,0.000,0.000,0.000,1,1,1169,1363,0,0,-1,0,0.00,0.00,0.283,0.093,9.965,-0.122,-0.427,0.244,28.95,8.35,8.41,0.8,6.3,1,1,1,1
4745321,1,0,1,0.000,0.000,0.000,0.000,1,1,1169,1363,0,0,-1,0,0.00,0.00,0.291,0.110,9.954,-0.244,-0.366,0.244,28.93,8.34,8.41,0.8,6.3,1,1,1,1
4755329,1,0,1,0.000,0.000,0.000,0.000,1,1,1169,1363,0,0,-1,0,0.00,0.00,0.300,0.081,9.940,-0.183,-0.366,0.305,28.96,8.34,8.42,1.0,8.4,1,1,1,1
4765329,1,0,1,0.000,0.000,0.000,0.000,1,1,1169,1363,0,0,-1,0,0.00,0.00,0.294,0.080,9.943,-0.061,-0.427,0.244,28.92,8.35,8.41,0.8,6.3,1,1,1,1
4775329,1,0,1,0.000,0.000,0.000,0.000,1,1,1169,1363,0,0,-1,0,0.00,0.00,0.271,0.085,9.969,-0.122,-0.366,0.244,28.93,8.34,8.41,1.0,8.4,1,1,1,1
4785336,1,0,1,0.000,0.000,0.000,0.000,1,1,1169,1363,0,0,-1,0,0.00,0.00,0.259,0.101,9.972,-0.122,-0.366,0.183,28.95,8.35,8.41,1.0,8.4,1,1,1,1
4795336,1,0,1,0.000,0.000,0.000,0.000,1,1,1169,1363,0,0,-1,0,0.00,0.00,0.273,0.084,9.956,-0.061,-0.366,0.305,28.94,8.34,8.41,1.0,8.4,1,1,1,1
4805344,1,0,1,0.000,0.000,0.000,0.000,1,1,1169,1363,0,0,-1,0,0.00,0.00,0.271,0.079,9.963,-0.122,-0.305,0.244,28.93,8.35,8.41,0.8,6.3,1,1,1,1
4815351,1,0,1,0.000,0.000,0.000,0.000,1,1,1169,1363,0,0,-1,0,0.00,0.00,0.289,0.117,9.951,-0.183,-0.366,0.244,28.93,8.34,8.41,1.0,8.4,1,1,1,1
4825360,1,0,1,0.000,0.000,0.000,0.000,1,1,1169,1363,0,0,-1,0,0.00,0.00,0.296,0.117,9.968,-0.061,-0.305,0.244,28.96,8.34,8.41,1.0,8.4,1,1,1,1
4835366,1,0,1,0.000,0.000,0.000,0.000,1,1,1169,1363,0,0,-1,0,0.00,0.00,0.263,0.090,9.973,-0.183,-0.305,0.244,28.93,8.35,8.41,1.0,8.4,1,1,1,1
4845366,1,0,1,0.000,0.000,0.000,0.000,1,1,1169,1363,0,0,-1,0,0.00,0.00,0.271,0.098,9.970,-0.122,-0.366,0.305,28.94,8.35,8.41,1.0,8.4,1,1,1,1
4855375,1,0,1,0.000,0.000,0.000,0.000,1,1,1169,1363,0,0,-1,0,0.00,0.00,0.292,0.095,9.943,-0.183,-0.366,0.244,28.93,8.35,8.41,0.8,6.3,1,1,1,1
4865375,1,0,1,0.000,0.000,0.000,0.000,1,1,1169,1363,0,0,-1,0,0.00,0.00,0.274,0.086,9.964,-0.183,-0.305,0.244,28.93,8.35,8.41,0.8,6.3,1,1,1,1
4875379,1,0,1,0.000,0.000,0.000,0.000,1,1,1169,1363,0,0,-1,0,0.00,0.00,0.264,0.087,9.966,-0.122,-0.305,0.305,28.96,8.34,8.41,1.0,8.4,1,1,1,1
4885382,1,0,1,0.000,0.000,0.000,0.000,1,1,1169,1363,0,0,-1,0,0.00,0.00,0.287,0.093,9.972,-0.122,-0.366,0.244,28.93,8.35,8.41,0.8,6.3,1,1,1,1
4895390,1,0,1,0.000,0.000,0.000,0.000,1,1,1169,1363,0,0,-1,0,0.00,0.00,0.270,0.101,9.975,-0.183,-0.366,0.244,28.93,8.35,8.41,1.0,8.4,1,1,1,1
4905397,1,0,1,0.000,0.000,0.000,0.000,1,1,1169,1362,0,-1,-1,-1,0.00,0.00,0.284,0.095,9.959,-0.244,-0.305,0.244,28.93,8.34,8.41,1.0,8.4,1,1,1,1
4915405,1,0,1,0.000,0.000,0.000,0.000,1,1,1169,1363,0,1,-1,0,0.00,0.00,0.277,0.100,9.950,-0.244,-0.244,0.244,28.95,8.35,8.41,0.8,6.3,1,1,1,1
4925405,1,0,1,0.000,0.000,0.000,0.000,1,1,1169,1363,0,0,-1,0,0.00,0.00,0.270,0.086,9.981,-0.122,-0.305,0.244,28.96,8.35,8.41,1.0,8.4,1,1,1,1
4935412,1,0,1,0.000,0.000,0.000,0.000,1,1,1169,1363,0,0,-1,0,0.00,0.00,0.271,0.100,9.985,-0.183,-0.427,0.244,28.93,8.35,8.41,1.0,8.4,1,1,1,1
4945420,1,0,1,0.000,0.000,0.000,0.000,1,1,1169,1363,0,0,-1,0,0.00,0.00,0.287,0.095,9.955,-0.122,-0.427,0.305,28.92,8.35,8.41,1.0,8.4,1,1,1,1
4955427,1,0,1,0.000,0.000,0.000,0.000,1,1,1169,1363,0,0,-1,0,0.00,0.00,0.294,0.076,9.973,-0.122,-0.305,0.366,28.94,8.35,8.41,1.0,8.4,1,1,1,1
4965436,1,0,1,0.000,0.000,0.000,0.000,1,1,1169,1363,0,0,-1,0,0.00,0.00,0.287,0.092,9.971,-0.183,-0.305,0.305,28.93,8.35,8.41,0.8,6.3,1,1,1,1
4975436,1,0,1,0.000,0.000,0.000,0.000,1,1,1169,1363,0,0,-1,0,0.00,0.00,0.286,0.099,9.971,-0.244,-0.305,0.122,28.97,8.35,8.41,1.0,8.4,1,1,1,1
4985442,1,0,1,0.000,0.000,0.000,0.000,1,1,1169,1363,0,0,-1,0,0.00,0.00,0.272,0.092,9.966,-0.244,-0.305,0.366,28.95,8.34,8.41,0.8,6.3,1,1,1,1
4995451,1,0,1,0.000,0.000,0.000,0.000,1,1,1169,1363,0,0,-1,0,0.00,0.00,0.277,0.100,9.961,-0.183,-0.366,0.305,28.95,8.34,8.41,1.0,8.4,1,1,1,1
5005451,1,0,1,0.000,0.000,0.000,0.000,1,1,1169,1363,0,0,-1,0,0.00,0.00,0.284,0.096,9.938,-0.122,-0.366,0.244,28.93,8.35,8.41,0.8,6.3,1,1,1,1
5015451,1,0,1,0.000,0.000,0.000,0.000,1,1,1169,1363,0,0,-1,0,0.00,0.00,0.269,0.081,9.964,-0.183,-0.366,0.305,28.95,8.35,8.41,1.0,8.4,1,1,1,1
5025451,1,0,1,0.000,0.000,0.000,0.000,1,1,1169,1363,0,0,-1,0,0.00,0.00,0.272,0.101,9.977,-0.061,-0.305,0.305,28.97,8.35,8.41,0.8,6.3,1,1,1,1
5035451,1,0,1,0.000,0.000,0.000,0.000,1,1,1169,1363,0,0,-1,0,0.00,0.00,0.280,0.093,9.945,-0.122,-0.244,0.244,28.95,8.35,8.41,0.8,6.3,1,1,1,1
5045457,1,0,1,0.000,0.000,0.000,0.000,1,1,1169,1363,0,0,-1,0,0.00,0.00,0.300,0.099,9.967,-0.061,-0.244,0.244,28.93,8.35,8.41,1.0,8.4,1,1,1,1
5055457,1,0,1,0.000,0.000,0.000,0.000,1,1,1169,1363,0,0,-1,0,0.00,0.00,0.291,0.084,9.951,-0.061,-0.244,0.305,28.98,8.34,8.41,1.0,8.4,1,1,1,1
5065466,1,0,1,0.000,0.000,0.000,0.000,1,1,1169,1363,0,0,-1,0,0.00,0.00,0.268,0.074,9.971,-0.183,-0.427,0.244,28.93,8.33,8.41,0.8,6.3,1,1,1,1
5075466,1,0,1,0.000,0.000,0.000,0.000,1,1,1169,1363,0,0,-1,0,0.00,0.00,0.277,0.117,9.965,-0.183,-0.366,0.305,28.95,8.34,8.41,1.0,8.4,1,1,1,1
5085466,1,0,1,0.000,0.000,0.000,0.000,1,1,1169,1363,0,0,-1,0,0.00,0.00,0.295,0.101,9.946,-0.122,-0.366,0.183,28.91,8.35,8.42,1.0,8.4,1,1,1,1
5095472,1,0,1,0.000,0.000,0.000,0.000,1,1,1169,1363,0,0,-1,0,0.00,0.00,0.276,0.087,9.948,-0.122,-0.427,0.183,28.91,8.35,8.41,1.0,8.4,1,1,1,1
5105472,1,0,1,0.000,0.000,0.000,0.000,1,1,1169,1363,0,0,-1,0,0.00,0.00,0.293,0.082,9.974,-0.122,-0.366,0.122,28.95,8.35,8.41,0.8,6.3,1,1,1,1
5115472,1,0,1,0.000,0.000,0.000,0.000,1,1,1169,1363,0,0,-1,0,0.00,0.00,0.281,0.095,9.970,-0.183,-0.305,0.244,28.99,8.34,8.41,0.8,6.3,1,1,1,1
5125472,1,0,1,0.000,0.000,0.000,0.000,1,1,1169,1363,0,0,-1,0,0.00,0.00,0.286,0.099,9.966,-0.183,-0.427,0.244,29.01,8.35,8.41,1.0,8.4,1,1,1,1
5135481,1,0,1,0.000,0.000,0.000,0.000,1,1,1169,1363,0,0,-1,0,0.00,0.00,0.289,0.102,9.966,-0.183,-0.427,0.305,28.94,8.35,8.41,0.8,6.3,1,1,1,1
5145481,1,0,1,0.000,0.000,0.000,0.000,1,1,1169,1363,0,0,-1,0,0.00,0.00,0.301,0.095,9.972,-0.183,-0.427,0.305,28.94,8.34,8.41,0.8,6.3,1,1,1,1
5155488,1,0,1,0.000,0.000,0.000,0.000,1,1,1169,1363,0,0,-1,0,0.00,0.00,0.267,0.102,9.984,-0.183,-0.305,0.305,28.97,8.35,8.41,1.0,8.4,1,1,1,1
5165494,1,0,1,0.000,0.000,0.000,0.000,1,1,1169,1363,0,0,-1,0,0.00,0.00,0.283,0.100,9.970,-0.122,-0.366,0.244,28.94,8.35,8.41,1.0,8.4,1,1,1,1
5175503,1,0,1,0.000,0.000,0.000,0.000,1,1,1169,1363,0,0,-1,0,0.00,0.00,0.281,0.092,9.971,-0.122,-0.427,0.244,28.95,8.35,8.41,1.0,8.4,1,1,1,1
5185511,1,0,1,0.000,0.000,0.000,0.000,1,1,1169,1363,0,0,-1,0,0.00,0.00,0.289,0.081,9.974,-0.122,-0.305,0.305,28.96,8.35,8.41,1.0,8.4,1,1,1,1
5195511,1,0,1,0.000,0.000,0.000,0.000,1,1,1169,1363,0,0,-1,0,0.00,0.00,0.290,0.101,9.957,-0.244,-0.183,0.244,28.94,8.34,8.41,1.0,8.4,1,1,1,1
5205511,1,0,1,0.000,0.000,0.000,0.000,1,1,1169,1363,0,0,-1,0,0.00,0.00,0.289,0.085,9.956,-0.183,-0.366,0.244,28.99,8.37,8.41,1.0,8.4,1,1,1,1
5215511,1,0,1,0.000,0.000,0.000,0.000,1,1,1169,1363,0,0,-1,0,0.00,0.00,0.287,0.095,9.968,-0.122,-0.366,0.305,28.91,8.35,8.41,1.0,8.4,1,1,1,1
5225511,1,0,1,0.000,0.000,0.000,0.000,1,1,1169,1363,0,0,-1,0,0.00,0.00,0.283,0.097,9.960,-0.122,-0.305,0.305,28.98,8.34,8.42,0.8,6.3,1,1,1,1
5235518,1,0,1,0.000,0.000,0.000,0.000,1,1,1169,1363,0,0,-1,0,0.00,0.00,0.288,0.098,9.965,-0.122,-0.305,0.305,28.96,8.35,8.41,1.0,8.4,1,1,1,1
5245527,1,0,1,0.000,0.000,0.000,0.000,1,1,1169,1363,0,0,-1,0,0.00,0.00,0.284,0.092,9.977,-0.122,-0.366,0.244,28.93,8.35,8.41,1.0,8.4,1,1,1,1
5255527,1,0,1,0.000,0.000,0.000,0.000,1,1,1169,1363,0,0,-1,0,0.00,0.00,0.262,0.099,9.973,-0.244,-0.366,0.305,28.97,8.35,8.41,0.8,6.3,1,1,1,1
5265527,1,0,1,0.000,0.000,0.000,0.000,1,1,1169,1363,0,0,-1,0,0.00,0.00,0.280,0.087,9.962,-0.183,-0.305,0.183,28.93,8.35,8.41,1.0,8.4,1,1,1,1
5275533,1,0,1,0.000,0.000,0.000,0.000,1,1,1169,1363,0,0,-1,0,0.00,0.00,0.283,0.116,9.966,-0.183,-0.366,0.305,28.98,8.34,8.42,1.0,8.4,1,1,1,1
5285547,1,0,1,0.000,0.000,0.000,0.000,1,1,1169,1363,0,0,-1,0,0.00,0.00,0.272,0.092,9.953,-0.183,-0.366,0.244,29.01,8.33,8.41,1.0,8.4,1,1,1,1
5295557,1,0,1,0.000,0.000,0.000,0.000,1,1,1169,1363,0,0,-1,0,0.00,0.00,0.293,0.091,9.963,-0.183,-0.305,0.366,29.01,8.34,8.41,1.0,8.4,1,1,1,1
5305563,1,0,1,0.000,0.000,0.000,0.000,1,1,1169,1363,0,0,-1,0,0.00,0.00,0.276,0.090,9.964,-0.244,-0.305,0.244,28.96,8.35,8.41,1.0,8.4,1,1,1,1
5315563,1,0,1,0.000,0.000,0.000,0.000,1,1,1169,1363,0,0,-1,0,0.00,0.00,0.265,0.092,9.970,-0.122,-0.366,0.244,28.93,8.35,8.41,1.0,8.4,1,1,1,1
5325572,1,0,1,0.000,0.000,0.000,0.000,1,1,1169,1363,0,0,-1,0,0.00,0.00,0.275,0.105,9.948,-0.061,-0.305,0.244,28.93,8.35,8.41,0.8,6.3,1,1,1,1
5335572,1,0,1,0.000,0.000,0.000,0.000,1,1,1169,1363,0,0,-1,0,0.00,0.00,0.280,0.096,9.972,-0.183,-0.366,0.244,28.92,8.35,8.41,1.0,8.4,1,1,1,1
5345579,1,0,1,0.000,0.000,0.000,0.000,1,1,1169,1363,0,0,-1,0,0.00,0.00,0.279,0.104,9.958,-0.244,-0.427,0.305,28.97,8.35,8.41,1.0,8.4,1,1,1,1
5355587,1,0,1,0.000,0.000,0.000,0.000,1,1,1169,1363,0,0,-1,0,0.00,0.00,0.248,0.087,9.960,-0.122,-0.427,0.183,28.98,8.35,8.41,0.8,6.3,1,1,1,1
5365587,1,0,1,0.000,0.000,0.000,0.000,1,1,1169,1363,0,0,-1,0,0.00,0.00,0.263,0.075,9.961,-0.183,-0.305,0.183,28.92,8.34,8.41,1.0,8.4,1,1,1,1
5375587,1,0,1,0.000,0.000,0.000,0.000,1,1,1169,1363,0,0,-1,0,0.00,0.00,0.281,0.090,9.956,-0.183,-0.427,0.305,28.93,8.35,8.41,0.8,6.3,1,1,1,1
5385594,1,0,1,0.000,0.000,0.000,0.000,1,1,1169,1363,0,0,-1,0,0.00,0.00,0.288,0.093,9.951,-0.183,-0.305,0.244,28.93,8.34,8.41,0.8,6.3,1,1,1,1
5395594,1,0,1,0.000,0.000,0.000,0.000,1,1,1169,1363,0,0,-1,0,0.00,0.00,0.283,0.094,9.946,-0.183,-0.305,0.244,28.96,8.35,8.41,1.0,8.4,1,1,1,1
5405594,1,0,1,0.000,0.000,0.000,0.000,1,1,1169,1363,0,0,-1,0,0.00,0.00,0.283,0.092,9.954,-0.122,-0.366,0.244,28.98,8.35,8.41,1.0,8.4,1,1,1,1
5415602,1,0,1,0.000,0.000,0.000,0.000,1,1,1169,1363,0,0,-1,0,0.00,0.00,0.290,0.078,9.957,-0.122,-0.305,0.305,28.92,8.35,8.41,0.8,6.3,1,1,1,1
5425602,1,0,1,0.000,0.000,0.000,0.000,1,1,1169,1363,0,0,-1,0,0.00,0.00,0.278,0.095,9.957,-0.122,-0.305,0.305,28.93,8.35,8.41,1.0,8.4,1,1,1,1
5435602,1,0,1,0.000,0.000,0.000,0.000,1,1,1169,1363,0,0,-1,0,0.00,0.00,0.278,0.083,9.984,-0.244,-0.305,0.305,28.96,8.35,8.41,0.8,6.3,1,1,1,1
5445602,1,0,1,0.000,0.000,0.000,0.000,1,1,1169,1363,0,0,-1,0,0.00,0.00,0.276,0.080,9.967,-0.183,-0.366,0.244,28.95,8.35,8.41,1.0,8.4,1,1,1,1
5455602,1,0,1,0.000,0.000,0.000,0.000,1,1,1169,1363,0,0,-1,0,0.00,0.00,0.278,0.079,9.960,-0.244,-0.366,0.305,28.93,8.35,8.41,1.0,8.4,1,1,1,1
5465602,1,0,1,0.000,0.000,0.000,0.000,1,1,1169,1363,0,0,-1,0,0.00,0.00,0.291,0.074,9.959,-0.122,-0.427,0.305,28.93,8.33,8.42,1.0,8.4,1,1,1,1
5475609,1,0,1,0.000,0.000,0.000,0.000,1,1,1169,1363,0,0,-1,0,0.00,0.00,0.253,0.086,9.972,-0.061,-0.366,0.305,28.95,8.34,8.41,0.8,6.3,1,1,1,1
5485609,1,0,1,0.000,0.000,0.000,0.000,1,1,1169,1363,0,0,-1,0,0.00,0.00,0.274,0.116,9.974,-0.061,-0.305,0.305,28.95,8.35,8.41,1.0,8.4,1,1,1,1
5495618,1,0,1,0.000,0.000,0.000,0.000,1,1,1169,1363,0,0,-1,0,0.00,0.00,0.283,0.098,9.948,-0.061,-0.305,0.244,28.96,8.35,8.41,1.0,8.4,1,1,1,1
5505624,1,0,1,0.000,0.000,0.000,0.000,1,1,1169,1362,0,-1,-1,-1,0.00,0.00,0.290,0.071,9.956,-0.183,-0.244,0.305,28.93,8.35,8.41,0.8,6.3,1,1,1,1
5515633,1,0,1,0.000,0.000,0.000,0.000,1,1,1169,1363,0,1,-1,0,0.00,0.00,0.274,0.097,9.972,-0.122,-0.366,0.305,28.99,8.34,8.41,0.8,6.3,1,1,1,1
5525633,1,0,1,0.000,0.000,0.000,0.000,1,1,1169,1363,0,0,-1,0,0.00,0.00,0.286,0.096,9.967,-0.122,-0.305,0.244,28.94,8.35,8.41,0.8,6.3,1,1,1,1
5535633,1,0,1,0.000,0.000,0.000,0.000,1,1,1169,1363,0,0,-1,0,0.00,0.00,0.285,0.092,9.954,-0.122,-0.366,0.183,28.94,8.33,8.41,0.8,6.3,1,1,1,1
5545633,1,0,1,0.000,0.000,0.000,0.000,1,1,1169,1363,0,0,-1,0,0.00,0.00,0.287,0.079,9.984,-0.244,-0.366,0.244,28.97,8.37,8.41,1.0,8.4,1,1,1,1
5555639,1,0,1,0.000,0.000,0.000,0.000,1,1,1169,1363,0,0,-1,0,0.00,0.00,0.271,0.107,9.968,-0.244,-0.366,0.244,28.92,8.34,8.41,1.0,8.4,1,1,1,1
5565639,1,0,1,0.000,0.000,0.000,0.000,1,1,1169,1362,0,-1,-1,-1,0.00,0.00,0.284,0.095,9.968,-0.122,-0.366,0.244,28.94,8.35,8.41,0.8,6.3,1,1,1,1
5575639,1,0,1,0.000,0.000,0.000,0.000,1,1,1169,1363,0,1,-1,0,0.00,0.00,0.277,0.081,9.973,-0.183,-0.427,0.244,28.93,8.35,8.41,0.8,6.3,1,1,1,1
5585645,1,0,1,0.000,0.000,0.000,0.000,1,1,1169,1363,0,0,-1,0,0.00,0.00,0.289,0.098,9.941,-0.183,-0.366,0.244,28.94,8.33,8.41,1.0,8.4,1,1,1,1
5595655,1,0,1,0.000,0.000,0.000,0.000,1,1,1169,1363,0,0,-1,0,0.00,0.00,0.269,0.107,9.948,-0.122,-0.183,0.244,28.96,8.34,8.41,1.0,8.4,1,1,1,1
5605655,1,0,1,0.000,0.000,0.000,0.000,1,1,1169,1363,0,0,-1,0,0.00,0.00,0.269,0.091,9.980,-0.244,-0.244,0.183,28.97,8.35,8.41,0.8,6.3,1,1,1,1
5615663,1,0,1,0.000,0.000,0.000,0.000,1,1,1169,1363,0,0,-1,0,0.00,0.00,0.288,0.111,9.991,-0.122,-0.366,0.244,28.96,8.34,8.41,0.8,6.3,1,1,1,1
5625663,1,0,1,0.000,0.000,0.000,0.000,1,1,1169,1363,0,0,-1,0,0.00,0.00,0.287,0.095,9.965,-0.122,-0.427,0.244,28.94,8.34,8.41,1.0,8.4,1,1,1,1
5635663,1,0,1,0.000,0.000,0.000,0.000,1,1,1169,1363,0,0,-1,0,0.00,0.00,0.283,0.096,9.946,-0.183,-0.244,0.305,28.92,8.35,8.41,0.8,6.3,1,1,1,1
5645670,1,0,1,0.000,0.000,0.000,0.000,1,1,1169,1363,0,0,-1,0,0.00,0.00,0.269,0.086,9.951,-0.122,-0.366,0.305,28.94,8.35,8.41,1.0,8.4,1,1,1,1
5655670,1,0,1,0.000,0.000,0.000,0.000,1,1,1169,1363,0,0,-1,0,0.00,0.00,0.277,0.108,9.968,-0.183,-0.366,0.183,28.97,8.32,8.41,1.0,8.4,1,1,1,1
5665679,1,0,1,0.000,0.000,0.000,0.000,1,1,1169,1363,0,0,-1,0,0.00,0.00,0.284,0.093,9.934,-0.061,-0.366,0.244,28.94,8.34,8.41,0.8,6.3,1,1,1,1
5675687,1,0,1,0.000,0.000,0.000,0.000,1,1,1169,1363,0,0,-1,0,0.00,0.00,0.277,0.075,9.957,-0.183,-0.366,0.305,28.97,8.34,8.41,1.0,8.4,1,1,1,1
5685694,1,0,1,0.000,0.000,0.000,0.000,1,1,1169,1363,0,0,-1,0,0.00,0.00,0.277,0.079,9.974,-0.183,-0.366,0.244,28.97,8.35,8.41,0.8,6.3,1,1,1,1
5695702,1,0,1,0.000,0.000,0.000,0.000,1,1,1169,1363,0,0,-1,0,0.00,0.00,0.279,0.111,9.966,-0.183,-0.366,0.244,28.96,8.34,8.41,0.8,6.3,1,1,1,1
5705709,1,0,1,0.000,0.000,0.000,0.000,1,1,1169,1363,0,0,-1,0,0.00,0.00,0.275,0.102,9.955,-0.122,-0.366,0.305,28.98,8.34,8.41,1.0,8.4,1,1,1,1
5715718,1,0,1,0.000,0.000,0.000,0.000,1,1,1169,1363,0,0,-1,0,0.00,0.00,0.293,0.086,9.974,-0.183,-0.305,0.305,28.94,8.34,8.41,0.8,6.3,1,1,1,1
5725718,1,0,1,0.000,0.000,0.000,0.000,1,1,1169,1363,0,0,-1,0,0.00,0.00,0.291,0.089,9.943,-0.183,-0.366,0.305,28.93,8.34,8.41,1.0,8.4,1,1,1,1
5735718,1,0,1,0.000,0.000,0.000,0.000,1,1,1169,1363,0,0,-1,0,0.00,0.00,0.284,0.087,9.951,-0.183,-0.366,0.244,28.91,8.34,8.41,1.0,8.4,1,1,1,1
5745724,1,0,1,0.000,0.000,0.000,0.000,1,1,1169,1363,0,0,-1,0,0.00,0.00,0.276,0.099,9.940,-0.122,-0.305,0.244,28.94,8.34,8.41,1.0,8.4,1,1,1,1
5755733,1,0,1,0.000,0.000,0.000,0.000,1,1,1169,1363,0,0,-1,0,0.00,0.00,0.268,0.102,9.960,-0.183,-0.305,0.244,28.95,8.34,8.41,1.0,8.4,1,1,1,1
5765733,1,0,1,0.000,0.000,0.000,0.000,1,1,1169,1363,0,0,-1,0,0.00,0.00,0.278,0.075,9.984,-0.122,-0.366,0.305,28.93,8.35,8.42,1.0,8.4,1,1,1,1
5775733,1,0,1,0.000,0.000,0.000,0.000,1,1,1169,1362,0,-1,-1,-1,0.00,0.00,0.278,0.093,9.974,-0.183,-0.427,0.366,28.94,8.35,8.42,1.0,8.4,1,1,1,1
5785740,1,0,1,0.000,0.000,0.000,0.000,1,1,1169,1363,0,1,-1,0,0.00,0.00,0.284,0.094,9.951,-0.061,-0.366,0.244,28.93,8.34,8.42,1.0,8.4,1,1,1,1
5795748,1,0,1,0.000,0.000,0.000,0.000,1,1,1169,1363,0,0,-1,0,0.00,0.00,0.268,0.081,9.960,0.000,-0.305,0.244,28.96,8.35,8.41,1.0,8.4,1,1,1,1
5805748,1,0,1,0.000,0.000,0.000,0.000,1,1,1169,1363,0,0,-1,0,0.00,0.00,0.279,0.082,9.967,-0.183,-0.305,0.305,28.95,8.35,8.41,0.8,6.3,1,1,1,1
5815755,1,0,1,0.000,0.000,0.000,0.000,1,1,1169,1363,0,0,-1,0,0.00,0.00,0.294,0.095,9.958,-0.183,-0.366,0.244,28.94,8.35,8.42,1.0,8.4,1,1,1,1
5825763,1,0,1,0.000,0.000,0.000,0.000,1,1,1169,1363,0,0,-1,0,0.00,0.00,0.283,0.098,9.961,-0.183,-0.366,0.305,28.94,8.35,8.41,1.0,8.4,1,1,1,1
5835770,1,0,1,0.000,0.000,0.000,0.000,1,1,1169,1363,0,0,-1,0,0.00,0.00,0.290,0.087,9.963,-0.122,-0.366,0.244,28.98,8.35,8.41,1.0,8.4,1,1,1,1
5845770,1,0,1,0.000,0.000,0.000,0.000,1,1,1169,1363,0,0,-1,0,0.00,0.00,0.283,0.078,9.972,-0.122,-0.305,0.305,29.00,8.35,8.41,0.8,6.3,1,1,1,1
5855778,1,0,1,0.000,0.000,0.000,0.000,1,1,1169,1363,0,0,-1,0,0.00,0.00,0.266,0.090,9.950,-0.061,-0.305,0.244,28.95,8.34,8.41,1.0,8.4,1,1,1,1
5865778,1,0,1,0.000,0.000,0.000,0.000,1,1,1169,1363,0,0,-1,0,0.00,0.00,0.262,0.105,9.972,-0.122,-0.305,0.305,28.91,8.35,8.41,1.0,8.4,1,1,1,1
5875789,1,0,1,0.000,0.000,0.000,0.000,1,1,1169,1363,0,0,-1,0,0.00,0.00,0.284,0.094,9.956,-0.183,-0.305,0.244,28.91,8.35,8.41,1.0,8.4,1,1,1,1
5885794,1,0,1,0.000,0.000,0.000,0.000,1,1,1169,1363,0,0,-1,0,0.00,0.00,0.269,0.105,9.950,-0.122,-0.305,0.244,28.97,8.35,8.41,1.0,8.4,1,1,1,1
5895794,1,0,1,0.000,0.000,0.000,0.000,1,1,1169,1363,0,0,-1,0,0.00,0.00,0.269,0.107,9.959,-0.244,-0.366,0.244,28.93,8.34,8.41,0.8,6.3,1,1,1,1
5905794,1,0,1,0.000,0.000,0.000,0.000,1,1,1169,1363,0,0,-1,0,0.00,0.00,0.260,0.082,9.968,-0.244,-0.305,0.305,28.96,8.35,8.41,0.8,6.3,1,1,1,1
5915800,1,0,1,0.000,0.000,0.000,0.000,1,1,1169,1363,0,0,-1,0,0.00,0.00,0.281,0.072,9.950,-0.244,-0.305,0.305,28.96,8.35,8.41,0.8,6.3,1,1,1,1
5925800,1,0,1,0.000,0.000,0.000,0.000,1,1,1169,1363,0,0,-1,0,0.00,0.00,0.268,0.082,9.960,-0.122,-0.244,0.305,28.98,8.35,8.41,1.0,8.4,1,1,1,1
5935800,1,0,1,0.000,0.000,0.000,0.000,1,1,1169,1363,0,0,-1,0,0.00,0.00,0.276,0.096,9.957,-0.122,-0.305,0.244,28.97,8.35,8.41,1.0,8.4,1,1,1,1
5945800,1,0,1,0.000,0.000,0.000,0.000,1,1,1169,1363,0,0,-1,0,0.00,0.00,0.290,0.087,9.962,-0.122,-0.366,0.305,28.96,8.34,8.41,1.0,8.4,1,1,1,1
5955809,1,0,1,0.000,0.000,0.000,0.000,1,1,1169,1363,0,0,-1,0,0.00,0.00,0.254,0.089,9.963,-0.122,-0.366,0.305,28.95,8.34,8.41,0.8,6.3,1,1,1,1
5965809,1,0,1,0.000,0.000,0.000,0.000,1,1,1169,1363,0,0,-1,0,0.00,0.00,0.281,0.085,9.965,-0.183,-0.427,0.244,28.94,8.35,8.41,0.8,6.3,1,1,1,1
5975815,1,0,1,0.000,0.000,0.000,0.000,1,1,1169,1363,0,0,-1,0,0.00,0.00,0.276,0.078,9.969,-0.183,-0.366,0.305,28.94,8.35,8.41,0.8,6.3,1,1,1,1
5985824,1,0,1,0.000,0.000,0.000,0.000,1,1,1169,1362,0,-1,-1,-1,0.00,-0.29,0.284,0.102,9.945,-0.244,-0.366,0.305,28.95,8.35,8.41,1.0,8.4,1,1,1,1
5995824,1,0,1,0.000,0.000,0.000,0.000,1,1,1169,1363,0,1,-1,0,0.00,-0.29,0.275,0.089,9.961,-0.183,-0.427,0.183,29.01,8.35,8.41,0.8,6.3,1,1,1,1
6005831,1,0,1,0.000,0.000,0.000,0.000,1,1,1169,1363,0,0,-1,0,0.00,-0.29,0.271,0.099,9.961,-0.122,-0.366,0.305,28.99,8.35,8.41,1.0,8.4,1,1,1,1
6015831,1,0,1,0.000,0.000,0.000,0.000,1,1,1169,1363,0,0,-1,0,0.00,-0.29,0.286,0.102,9.954,-0.244,-0.244,0.244,28.96,8.37,8.42,1.0,8.4,1,1,1,1
6025839,1,0,1,0.000,0.000,0.000,0.000,1,1,1169,1363,0,0,-1,0,0.00,-0.29,0.281,0.086,9.962,-0.183,-0.366,0.183,28.95,8.34,8.41,1.0,8.4,1,1,1,1
6035839,1,0,1,0.000,0.000,0.000,0.000,1,1,1169,1363,0,0,-1,0,0.00,0.29,0.277,0.071,9.971,-0.061,-0.427,0.244,28.93,8.35,8.41,1.0,8.4,1,1,1,1
6045846,1,0,1,0.000,0.000,0.000,0.000,1,1,1169,1363,0,0,-1,0,0.00,0.29,0.278,0.074,9.959,-0.122,-0.305,0.366,28.95,8.35,8.41,1.0,8.4,1,1,1,1
6055854,1,0,1,0.000,0.000,0.000,0.000,1,1,1169,1363,0,0,-1,0,0.00,0.29,0.289,0.091,9.966,-0.183,-0.305,0.305,28.94,8.35,8.41,0.8,6.3,1,1,1,1
6065854,1,0,1,0.000,0.000,0.000,0.000,1,1,1169,1363,0,0,-1,0,0.00,0.29,0.288,0.101,9.963,-0.122,-0.366,0.244,28.96,8.35,8.42,1.0,8.4,1,1,1,1
6075854,1,0,1,0.000,0.000,0.000,0.000,1,1,1169,1363,0,0,-1,0,0.00,0.29,0.282,0.090,9.954,-0.183,-0.366,0.244,28.96,8.34,8.41,1.0,8.4,1,1,1,1
6085854,1,0,1,0.000,0.000,0.000,0.000,1,1,1169,1363,0,0,-1,0,0.00,0.00,0.276,0.089,9.971,-0.244,-0.366,0.305,28.98,8.35,8.41,0.8,6.3,1,1,1,1
6095861,1,0,1,0.000,0.000,0.000,0.000,1,1,1169,1363,0,0,-1,0,0.00,0.00,0.269,0.116,9.956,-0.122,-0.305,0.244,28.98,8.34,8.41,0.8,6.3,1,1,1,1
6105861,1,0,1,0.000,0.000,0.000,0.000,1,1,1169,1363,0,0,-1,0,0.00,0.00,0.288,0.086,9.946,-0.183,-0.366,0.244,28.93,8.35,8.41,1.0,8.4,1,1,1,1
6115869,1,0,1,0.000,0.000,0.000,0.000,1,1,1169,1363,0,0,-1,0,0.00,0.00,0.274,0.084,9.958,-0.183,-0.244,0.244,28.97,8.35,8.41,1.0,8.4,1,1,1,1
6125876,1,0,1,0.000,0.000,0.000,0.000,1,1,1169,1363,0,0,-1,0,0.00,0.00,0.280,0.065,9.969,-0.122,-0.305,0.305,28.93,8.35,8.41,0.8,6.3,1,1,1,1
6135885,1,0,1,0.000,0.000,0.000,0.000,1,1,1169,1363,0,0,-1,0,0.00,0.00,0.284,0.087,9.959,-0.183,-0.366,0.366,28.91,8.35,8.42,0.8,6.3,1,1,1,1
6145891,1,0,1,0.000,0.000,0.000,0.000,1,1,1169,1363,0,0,-1,0,0.00,0.00,0.274,0.094,9.976,-0.183,-0.305,0.244,28.92,8.34,8.41,0.8,6.3,1,1,1,1
6155891,1,0,1,0.000,0.000,0.000,0.000,1,1,1169,1363,0,0,-1,0,0.00,0.00,0.287,0.093,9.968,-0.122,-0.366,0.244,28.94,8.34,8.41,1.0,8.4,1,1,1,1
6165903,1,0,1,0.000,0.000,0.000,0.000,1,1,1169,1363,0,0,-1,0,0.00,0.00,0.269,0.086,9.960,-0.183,-0.305,0.305,28.96,8.34,8.41,1.0,8.4,1,1,1,1
6175906,1,0,1,0.000,0.000,0.000,0.000,1,1,1169,1363,0,0,-1,0,0.00,0.00,0.283,0.077,9.956,-0.183,-0.244,0.244,28.98,8.34,8.41,1.0,8.4,1,1,1,1
6185915,1,0,1,0.000,0.000,0.000,0.000,1,1,1169,1363,0,0,-1,0,0.00,0.00,0.282,0.086,9.966,-0.244,-0.244,0.305,28.93,8.35,8.41,0.8,6.3,1,1,1,1
6195915,1,0,1,0.000,0.000,0.000,0.000,1,1,1169,1363,0,0,-1,0,0.00,0.00,0.287,0.087,9.974,-0.183,-0.366,0.244,28.94,8.34,8.41,1.0,8.4,1,1,1,1
6205915,1,0,1,0.000,0.000,0.000,0.000,1,1,1169,1363,0,0,-1,0,0.00,0.00,0.259,0.092,9.967,-0.122,-0.305,0.305,28.92,8.34,8.41,1.0,8.4,1,1,1,1
6215922,1,0,1,0.000,0.000,0.000,0.000,1,1,1169,1363,0,0,-1,0,0.00,0.00,0.284,0.101,9.955,-0.122,-0.305,0.183,28.94,8.35,8.42,1.0,8.4,1,1,1,1
6225930,1,0,1,0.000,0.000,0.000,0.000,1,1,1169,1363,0,0,-1,0,0.00,0.00,0.281,0.082,9.956,-0.183,-0.427,0.183,28.96,8.35,8.41,0.8,6.3,1,1,1,1
6235930,1,0,1,0.000,0.000,0.000,0.000,1,1,1169,1363,0,0,-1,0,0.00,0.00,0.277,0.104,9.964,-0.122,-0.366,0.244,28.97,8.35,8.41,0.8,6.3,1,1,1,1
6245930,1,0,1,0.000,0.000,0.000,0.000,1,1,1169,1363,0,0,-1,0,0.00,0.00,0.283,0.093,9.965,-0.183,-0.366,0.305,28.98,8.35,8.41,0.8,6.3,1,1,1,1
6255937,1,0,1,0.000,0.000,0.000,0.000,1,1,1169,1363,0,0,-1,0,0.00,0.00,0.283,0.074,9.955,-0.183,-0.305,0.366,28.93,8.35,8.41,0.8,6.3,1,1,1,1
6265937,1,0,1,0.000,0.000,0.000,0.000,1,1,1169,1363,0,0,-1,0,0.00,0.00,0.269,0.085,9.954,-0.183,-0.427,0.305,28.93,8.33,8.41,1.0,8.4,1,1,1,1
6275937,1,0,1,0.000,0.000,0.000,0.000,1,1,1169,1363,0,0,-1,0,0.00,0.00,0.271,0.096,9.971,-0.122,-0.305,0.366,28.93,8.33,8.41,1.0,8.4,1,1,1,1
6285937,1,1,1,0.008,-0.050,0.100,0.000,3,1,1169,1363,0,0,-1,0,0.00,0.00,0.290,0.101,9.963,-0.183,-0.305,0.305,28.97,8.30,8.41,0.8,6.3,1,1,1,1
6295945,1,1,1,0.008,-0.050,0.100,0.000,3,1,1169,1362,0,-1,-1,-1,0.00,0.00,0.294,0.099,9.949,-0.122,-0.305,0.244,28.92,8.33,8.39,50.0,419.6,1,1,1,1
6305945,1,1,1,0.008,-0.050,0.100,0.000,3,1,1169,1363,0,1,-1,0,0.00,0.00,0.274,0.098,9.968,-0.183,-0.305,0.305,28.96,8.21,8.39,52.8,442.4,1,1,1,1
6315945,1,1,1,0.008,-0.050,0.100,0.000,3,1,1169,1363,0,0,-1,0,0.00,0.00,0.262,0.090,9.966,-0.183,-0.305,0.305,28.96,8.32,8.39,49.5,415.2,1,1,1,1
6325952,1,1,1,0.008,-0.050,0.100,0.000,3,1,1169,1363,0,0,-1,0,0.00,0.00,0.268,0.078,9.965,-0.244,-0.366,0.244,28.95,8.31,8.39,52.2,438.5,1,1,1,1
6335952,1,1,1,0.008,-0.050,0.100,0.000,3,1,1169,1363,0,0,-1,0,0.00,0.00,0.271,0.100,9.963,-0.244,-0.427,0.244,28.95,8.33,8.39,49.8,417.5,1,1,1,1
6345960,1,1,1,0.008,-0.050,0.100,0.000,3,1,1169,1363,0,0,-1,0,0.00,0.00,0.277,0.063,9.952,-0.122,-0.366,0.305,28.97,8.34,8.40,49.8,417.7,1,1,1,1
6355960,1,1,1,0.008,-0.050,0.100,0.000,3,1,1169,1363,0,0,-1,0,0.00,0.00,0.287,0.097,9.977,-0.183,-0.366,0.244,28.96,8.35,8.39,52.5,440.7,1,1,1,1
6365960,1,1,1,0.008,-0.050,0.100,0.000,3,1,1169,1363,0,0,-1,0,0.00,0.00,0.289,0.078,9.961,-0.122,-0.366,0.244,28.95,8.33,8.39,49.8,417.4,1,1,1,1
6375967,1,1,1,0.008,-0.050,0.100,0.000,3,1,1169,1363,0,0,-1,0,0.00,0.00,0.290,0.085,9.961,-0.061,-0.366,0.305,28.95,8.33,8.39,53.2,446.8,1,1,1,1
6385967,1,1,1,0.008,-0.050,0.100,0.000,3,1,1169,1363,0,0,-1,0,0.00,0.00,0.257,0.102,9.981,-0.183,-0.305,0.305,28.94,8.31,8.39,49.2,413.1,1,1,1,1
6395967,1,1,1,0.008,-0.050,0.100,0.000,3,1,1169,1363,0,0,-1,0,0.00,0.00,0.274,0.100,9.978,-0.244,-0.366,0.183,28.98,8.33,8.39,50.8,426.0,1,1,1,1
6405976,1,1,1,0.008,-0.050,0.100,0.000,3,1,1169,1363,0,0,-1,0,0.00,0.00,0.274,0.094,9.962,-0.122,-0.305,0.244,28.95,8.33,8.39,51.5,432.2,1,1,1,1
6415982,1,1,1,0.008,-0.050,0.100,0.000,3,1,1169,1363,0,0,-1,0,0.00,0.00,0.287,0.084,9.964,-0.122,-0.366,0.305,28.97,8.31,8.40,49.8,418.0,1,1,1,1
6425982,1,1,1,0.008,-0.050,0.100,0.000,3,1,1169,1363,0,0,-1,0,0.00,0.00,0.291,0.078,9.971,-0.061,-0.305,0.244,28.98,8.34,8.40,49.8,417.9,1,1,1,1
6435982,1,1,1,0.008,-0.050,0.100,0.000,3,1,1169,1363,0,0,-1,0,0.00,0.00,0.266,0.087,9.984,-0.183,-0.244,0.244,28.96,8.31,8.41,53.0,445.5,1,1,1,1
6445991,1,1,1,0.008,-0.050,0.100,0.000,3,1,1169,1363,0,0,-1,0,0.00,0.00,0.289,0.083,9.971,-0.183,-0.305,0.244,28.99,8.31,8.40,49.8,418.1,1,1,1,1
6455991,1,1,1,0.008,-0.050,0.100,0.000,3,1,1169,1363,0,0,-1,0,0.00,0.00,0.291,0.080,9.946,-0.183,-0.305,0.305,28.97,8.35,8.40,52.8,443.0,1,1,1,1
6465997,1,1,1,0.008,-0.050,0.100,0.000,3,1,1169,1363,0,0,-1,0,0.00,0.00,0.285,0.117,9.960,-0.183,-0.244,0.305,28.97,8.33,8.40,49.5,415.7,1,1,1,1
6475997,1,1,1,0.008,-0.050,0.100,0.000,3,1,1169,1363,0,0,-1,0,0.00,0.00,0.268,0.102,9.981,-0.122,-0.366,0.183,28.96,8.31,8.40,50.2,422.4,1,1,1,1
6486006,1,1,1,0.008,-0.050,0.100,0.000,3,1,1169,1363,0,0,-1,0,0.00,0.00,0.282,0.105,9.976,-0.183,-0.305,0.183,28.92,8.31,8.40,52.0,436.7,1,1,1,1
6496006,1,1,1,0.008,-0.050,0.100,0.000,3,1,1169,1363,0,0,-1,0,0.00,0.00,0.275,0.068,9.968,-0.244,-0.305,0.244,28.90,8.34,8.39,50.0,419.6,1,1,1,1
6506006,1,1,1,0.008,-0.050,0.100,0.000,3,1,1169,1363,0,0,-1,0,0.00,0.00,0.274,0.079,9.967,-0.183,-0.305,0.183,28.99,8.33,8.41,53.5,449.7,1,1,1,1
6516013,1,1,1,0.008,-0.050,0.100,0.000,3,1,1169,1363,0,0,-1,0,0.00,0.00,0.291,0.080,9.958,-0.183,-0.366,0.244,28.96,8.34,8.39,49.8,417.3,1,1,1,1
6526021,1,1,1,0.008,-0.050,0.100,0.000,3,1,1169,1363,0,0,-1,0,0.00,0.00,0.261,0.096,9.949,-0.183,-0.427,0.183,28.90,8.33,8.39,50.8,425.9,1,1,1,1
6536028,1,1,1,0.008,-0.050,0.100,0.000,3,1,1169,1363,0,0,-1,0,0.00,0.00,0.278,0.091,9.968,-0.183,-0.427,0.305,28.93,8.31,8.39,50.8,425.9,1,1,1,1
6546036,1,1,1,0.008,-0.050,0.100,0.000,3,1,1169,1363,0,0,-1,0,0.00,0.00,0.271,0.090,9.953,-0.244,-0.244,0.305,28.92,8.33,8.40,50.0,419.8,1,1,1,1
6556043,1,1,1,0.008,-0.050,0.100,0.000,3,1,1169,1363,0,0,-1,0,0.00,0.00,0.275,0.104,9.960,-0.183,-0.305,0.305,28.96,8.34,8.40,50.0,419.9,1,1,1,1
6566051,1,1,1,0.008,-0.050,0.100,0.000,3,1,1169,1363,0,0,-1,0,0.00,0.00,0.282,0.105,9.952,-0.122,-0.305,0.305,28.96,8.34,8.40,52.2,438.8,1,1,1,1
6576058,1,1,1,0.008,-0.050,0.100,0.000,3,1,1169,1363,0,0,-1,0,0.00,0.00,0.308,0.110,9.950,-0.244,-0.244,0.305,28.97,8.31,8.39,49.5,415.1,1,1,1,1
6586067,1,1,1,0.008,-0.050,0.100,0.000,3,1,1169,1363,0,0,-1,0,0.00,0.00,0.284,0.097,9.950,-0.183,-0.244,0.183,28.96,8.33,8.39,53.2,446.8,1,1,1,1
6596073,1,1,1,0.008,-0.050,0.100,0.000,3,1,1169,1363,0,0,-1,0,0.00,0.00,0.284,0.096,9.978,-0.122,-0.366,0.244,28.98,8.34,8.40,49.8,417.8,1,1,1,1
6606073,1,1,1,0.008,-0.050,0.100,0.000,3,1,1169,1363,0,0,-1,0,0.00,0.00,0.274,0.087,9.965,-0.183,-0.305,0.244,28.96,8.34,8.39,50.2,421.7,1,1,1,1
6616082,1,1,1,0.008,-0.050,0.100,0.000,3,1,1169,1363,0,0,-1,0,0.00,0.00,0.282,0.105,9.932,-0.183,-0.305,0.244,28.93,8.33,8.39,52.5,440.3,1,1,1,1
6626089,1,1,1,0.008,-0.050,0.100,0.000,3,1,1169,1363,0,0,-1,0,0.00,0.00,0.285,0.099,9.949,-0.183,-0.305,0.305,28.93,8.35,8.40,49.8,417.8,1,1,1,1
6636097,1,1,1,0.008,-0.050,0.100,0.000,3,1,1169,1363,0,0,-1,0,0.00,0.00,0.296,0.088,9.980,-0.122,-0.366,0.244,28.94,8.32,8.40,53.0,445.5,1,1,1,1
6646104,1,1,1,0.008,-0.050,0.100,0.000,3,1,1169,1363,0,0,-1,0,0.00,0.00,0.283,0.087,9.975,-0.305,-0.427,0.244,28.98,8.31,8.40,50.0,419.8,1,1,1,1
6656112,1,1,1,0.008,-0.050,0.100,0.000,3,1,1169,1363,0,0,-1,0,0.00,0.00,0.277,0.102,9.957,-0.244,-0.244,0.244,28.98,8.31,8.40,50.5,424.3,1,1,1,1
6666119,1,1,1,0.008,-0.050,0.100,0.000,3,1,1169,1363,0,0,-1,0,0.00,0.00,0.275,0.101,9.975,-0.061,-0.244,0.305,28.95,8.34,8.39,50.8,425.9,1,1,1,1
6676127,1,1,1,0.008,-0.050,0.100,0.000,3,1,1169,1362,0,-1,-1,-1,0.00,0.00,0.290,0.090,9.955,-0.061,-0.305,0.305,28.97,8.34,8.40,49.8,417.7,1,1,1,1
6686127,1,1,1,0.008,-0.050,0.100,0.000,3,1,1169,1362,0,0,-1,-1,0.00,-0.29,0.274,0.084,9.978,-0.122,-0.305,0.305,28.96,8.31,8.39,53.7,451.2,1,1,1,1
6696127,1,1,1,0.008,-0.050,0.100,0.000,3,1,1169,1363,0,1,-1,0,0.00,-0.29,0.262,0.069,9.990,-0.122,-0.244,0.244,28.96,8.33,8.39,49.8,417.4,1,1,1,1
6706127,1,1,1,0.008,-0.050,0.100,0.000,3,1,1169,1363,0,0,-1,0,0.00,-0.29,0.289,0.074,9.972,-0.122,-0.366,0.244,28.96,8.33,8.39,50.0,419.7,1,1,1,1
6716127,1,1,1,0.008,-0.050,0.100,0.000,3,1,1169,1363,0,0,-1,0,0.00,-0.29,0.275,0.099,9.954,-0.061,-0.366,0.305,28.99,8.33,8.41,53.7,451.8,1,1,1,1
6726134,1,1,1,0.008,-0.050,0.100,0.000,3,1,1169,1363,0,0,-1,0,0.00,-0.29,0.258,0.088,9.959,-0.122,-0.366,0.305,28.96,8.34,8.39,49.8,417.2,1,1,1,1
6736143,1,1,1,0.008,-0.050,0.100,0.000,3,1,1169,1363,0,0,-1,0,0.00,0.29,0.269,0.087,9.972,-0.122,-0.427,0.305,28.94,8.32,8.40,50.5,424.1,1,1,1,1
6746143,1,1,1,0.008,-0.050,0.100,0.000,3,1,1169,1363,0,0,-1,0,0.00,0.29,0.277,0.099,9.968,-0.244,-0.305,0.244,28.98,8.33,8.39,51.2,429.9,1,1,1,1
6756143,1,1,1,0.008,-0.050,0.100,0.000,3,1,1169,1363,0,0,-1,0,0.00,0.29,0.293,0.086,9.964,-0.183,-0.366,0.244,28.96,8.34,8.39,49.8,417.7,1,1,1,1
6766149,1,1,1,0.008,-0.050,0.100,0.000,3,1,1169,1363,0,0,-1,0,0.00,0.29,0.268,0.087,9.965,0.000,-0.366,0.244,28.96,8.32,8.40,53.5,449.3,1,1,1,1
6776149,1,1,1,0.008,-0.050,0.100,0.000,3,1,1169,1363,0,0,-1,0,0.00,0.29,0.263,0.100,9.968,-0.122,-0.366,0.244,28.96,8.31,8.39,50.0,419.6,1,1,1,1
6786158,1,1,1,0.008,-0.050,0.100,0.000,3,1,1169,1363,0,0,-1,0,0.00,0.00,0.269,0.084,9.950,-0.183,-0.305,0.305,28.99,8.31,8.39,51.0,428.1,1,1,1,1
6796158,1,1,1,0.008,-0.050,0.100,0.000,3,1,1169,1363,0,0,-1,0,0.00,0.00,0.281,0.090,9.970,-0.183,-0.305,0.305,28.96,8.33,8.40,50.5,424.1,1,1,1,1
6806164,1,1,1,0.008,-0.050,0.100,0.000,3,1,1169,1363,0,0,-1,0,0.00,0.00,0.292,0.098,9.969,-0.122,-0.427,0.244,28.98,8.31,8.39,49.8,417.4,1,1,1,1
6816173,1,1,1,0.008,-0.050,0.100,0.000,3,1,1169,1363,0,0,-1,0,0.00,0.00,0.286,0.098,9.971,-0.244,-0.427,0.244,28.95,8.33,8.39,53.5,449.1,1,1,1,1
6826173,1,1,1,0.008,-0.050,0.100,0.000,3,1,1169,1363,0,0,-1,0,0.00,0.00,0.296,0.090,9.966,-0.305,-0.305,0.244,28.96,8.31,8.39,49.8,417.4,1,1,1,1
6836184,1,1,1,0.008,-0.050,0.100,0.000,3,1,1169,1363,0,0,-1,0,0.00,0.00,0.292,0.070,9.963,-0.183,-0.305,0.244,28.95,8.33,8.40,52.0,436.6,1,1,1,1
6846193,1,1,1,0.008,-0.050,0.100,0.000,3,1,1169,1363,0,0,-1,0,0.00,0.00,0.285,0.093,9.967,-0.244,-0.305,0.244,28.97,8.89,8.40,54.2,455.9,1,1,1,1
6856199,1,1,1,0.008,-0.050,0.100,0.000,3,1,1169,1363,0,0,-1,0,0.00,0.00,0.274,0.089,9.959,-0.244,-0.427,0.305,28.97,8.33,8.41,49.8,418.4,1,1,1,1
6866208,1,1,1,0.008,-0.050,0.100,0.000,3,1,1169,1363,0,0,-1,0,0.00,0.00,0.273,0.083,9.960,-0.122,-0.427,0.366,28.95,8.34,8.40,51.2,430.5,1,1,1,1
6876214,1,1,1,0.008,-0.050,0.100,0.000,3,1,1169,1363,0,0,-1,0,0.00,0.00,0.275,0.092,9.961,-0.244,-0.366,0.305,28.93,8.34,8.39,50.8,426.0,1,1,1,1
6886215,1,1,1,0.008,-0.050,0.100,0.000,3,1,1169,1363,0,0,-1,0,0.00,0.00,0.289,0.109,9.954,-0.122,-0.366,0.366,28.95,8.34,8.38,49.8,417.1,1,1,1,1
6896230,1,1,1,0.008,-0.050,0.100,0.000,3,1,1169,1363,0,0,-1,0,0.00,0.00,0.275,0.107,9.960,-0.061,-0.305,0.366,28.92,8.33,8.39,53.7,451.2,1,1,1,1
6906230,1,1,1,0.008,-0.050,0.100,0.000,3,1,1169,1363,0,0,-1,0,0.00,0.00,0.274,0.098,9.951,-0.183,-0.244,0.244,28.96,8.32,8.39,49.8,417.4,1,1,1,1
6916230,1,1,1,0.008,-0.050,0.100,0.000,3,1,1169,1363,0,0,-1,0,0.00,0.00,0.291,0.089,9.947,-0.122,-0.366,0.183,28.96,8.34,8.39,51.5,432.1,1,1,1,1
6926230,1,1,1,0.008,-0.050,0.100,0.000,3,1,1169,1363,0,0,-1,0,0.00,0.00,0.269,0.090,9.946,-0.061,-0.427,0.244,28.97,8.33,8.39,50.2,421.8,1,1,1,1
6936238,1,1,1,0.008,-0.050,0.100,0.000,3,1,1169,1363,0,0,-1,0,0.00,0.00,0.285,0.105,9.962,-0.183,-0.305,0.305,28.94,8.26,8.39,49.8,417.7,1,1,1,1
6946245,1,1,1,0.008,-0.050,0.100,0.000,3,1,1169,1363,0,0,-1,0,0.00,0.00,0.286,0.110,9.989,-0.122,-0.244,0.305,28.95,8.34,8.39,53.0,444.5,1,1,1,1
6956253,1,1,1,0.008,-0.050,0.100,0.000,3,1,1169,1362,0,-1,-1,-1,0.00,0.00,0.274,0.090,9.948,-0.061,-0.366,0.244,28.98,8.34,8.39,50.0,419.3,1,1,1,1
6966260,1,1,1,0.008,-0.050,0.100,0.000,3,1,1169,1363,0,1,-1,0,0.00,0.00,0.275,0.095,9.961,-0.122,-0.305,0.244,28.93,8.31,8.40,52.5,440.9,1,1,1,1
6976260,1,1,1,0.008,-0.050,0.100,0.000,3,1,1169,1363,0,0,-1,0,0.00,0.00,0.283,0.099,9.968,-0.244,-0.427,0.305,28.97,8.32,8.40,50.2,422.2,1,1,1,1
6986269,1,1,1,0.008,-0.050,0.100,0.000,3,1,1169,1363,0,0,-1,0,0.00,0.00,0.281,0.101,9.983,-0.183,-0.366,0.305,28.96,8.31,8.41,50.0,420.3,1,1,1,1
6996269,1,1,1,0.008,-0.050,0.100,0.000,3,1,1169,1363,0,0,-1,0,0.00,0.00,0.281,0.092,9.972,-0.183,-0.305,0.305,28.93,8.34,8.39,52.0,436.1,1,1,1,1
7006275,1,1,1,0.008,-0.050,0.100,0.000,3,1,1169,1363,0,0,-1,0,0.00,0.00,0.272,0.091,9.979,-0.305,-0.366,0.305,28.95,8.33,8.39,50.2,421.4,1,1,1,1
7016284,1,1,1,0.008,-0.050,0.100,0.000,3,1,1169,1363,0,0,-1,0,0.00,0.00,0.275,0.083,9.954,-0.244,-0.305,0.305,28.95,8.31,8.40,50.0,419.8,1,1,1,1
7026284,1,1,1,0.008,-0.050,0.100,0.000,3,1,1169,1363,0,0,-1,0,0.00,0.00,0.285,0.088,9.956,-0.183,-0.305,0.305,28.96,8.31,8.40,53.5,449.5,1,1,1,1
7036284,1,1,1,0.008,-0.050,0.100,0.000,3,1,1169,1363,0,0,-1,0,0.00,0.00,0.278,0.089,9.982,-0.061,-0.305,0.244,28.96,8.31,8.38,49.8,417.0,1,1,1,1
7046284,1,1,1,0.008,-0.050,0.100,0.000,3,1,1169,1363,0,0,-1,0,0.00,0.00,0.281,0.094,9.976,-0.061,-0.305,0.183,29.02,8.30,8.39,52.5,440.5,1,1,1,1
7056284,1,1,1,0.008,-0.050,0.100,0.000,3,1,1169,1363,0,0,-1,0,0.00,0.00,0.290,0.088,9.979,-0.122,-0.244,0.244,29.02,8.33,8.40,49.2,413.5,1,1,1,1
7066290,1,1,1,0.008,-0.050,0.100,0.000,3,1,1169,1363,0,0,-1,0,0.00,0.00,0.291,0.077,9.976,-0.183,-0.305,0.244,28.95,8.33,8.39,50.0,419.7,1,1,1,1
7076299,1,1,1,0.008,-0.050,0.100,0.000,3,1,1169,1363,0,0,-1,0,0.00,0.00,0.269,0.081,9.968,-0.183,-0.366,0.244,28.97,8.34,8.39,52.5,440.7,1,1,1,1
7086306,1,1,1,0.008,-0.050,0.100,0.000,3,1,1169,1363,0,0,-1,0,0.00,0.00,0.294,0.090,9.986,-0.122,-0.427,0.305,28.98,8.33,8.39,49.8,417.7,1,1,1,1
7096314,1,1,1,0.008,-0.050,0.100,0.000,3,1,1169,1363,0,0,-1,0,0.00,0.00,0.291,0.096,9.987,-0.183,-0.305,0.305,28.99,8.33,8.40,52.8,443.2,1,1,1,1
7106314,1,1,1,0.008,-0.050,0.100,0.000,3,1,1169,1363,0,0,-1,0,0.00,0.00,0.284,0.099,9.994,-0.183,-0.305,0.305,28.96,8.33,8.39,49.5,415.1,1,1,1,1
7116314,1,1,1,0.008,-0.050,0.100,0.000,3,1,1169,1363,0,0,-1,0,0.00,0.00,0.296,0.097,9.954,-0.183,-0.427,0.305,28.95,8.31,8.39,49.8,417.4,1,1,1,1
7126321,1,1,1,0.008,-0.050,0.100,0.000,3,1,1169,1363,0,0,-1,0,0.00,0.00,0.294,0.088,9.950,-0.183,-0.366,0.305,28.96,8.31,8.39,52.5,440.7,1,1,1,1
7136336,1,1,1,0.008,-0.050,0.100,0.000,3,1,1169,1363,0,0,-1,0,0.00,0.00,0.284,0.086,9.959,-0.244,-0.305,0.305,28.95,8.31,8.39,50.0,419.7,1,1,1,1
7146344,1,1,1,0.008,-0.050,0.100,0.000,3,1,1169,1363,0,0,-1,0,0.00,0.00,0.271,0.092,9.966,-0.183,-0.305,0.244,28.96,8.18,8.38,49.8,417.0,1,1,1,1
7156345,1,1,1,0.008,-0.050,0.100,0.000,3,1,1169,1363,0,0,-1,0,0.00,0.00,0.275,0.086,9.963,-0.122,-0.366,0.244,28.99,8.34,8.39,53.0,444.7,1,1,1,1
7166360,1,1,1,0.008,-0.050,0.100,0.000,3,1,1169,1363,0,0,-1,0,0.00,0.00,0.298,0.095,9.971,-0.244,-0.366,0.183,28.95,8.33,8.39,49.8,417.7,1,1,1,1
7176360,1,1,1,0.008,-0.050,0.100,0.000,3,1,1169,1363,0,0,-1,0,0.00,0.00,0.281,0.087,9.956,-0.122,-0.366,0.244,28.95,8.33,8.40,53.0,445.2,1,1,1,1
7186360,1,1,1,0.008,-0.050,0.100,0.000,3,1,1169,1363,0,0,-1,0,0.00,0.00,0.286,0.087,9.956,-0.061,-0.366,0.305,28.94,8.33,8.39,49.5,415.4,1,1,1,1
7196366,1,1,1,0.008,-0.050,0.100,0.000,3,1,1169,1363,0,0,-1,0,0.00,0.00,0.289,0.089,9.980,-0.244,-0.427,0.305,28.94,8.34,8.39,50.0,419.5,1,1,1,1
7206375,1,1,1,0.008,-0.050,0.100,0.000,3,1,1169,1363,0,0,-1,0,0.00,0.00,0.276,0.077,9.983,-0.183,-0.366,0.244,28.95,8.34,8.39,52.2,438.4,1,1,1,1
7216381,1,1,1,0.008,-0.050,0.100,0.000,3,1,1169,1363,0,0,-1,0,0.00,0.00,0.283,0.087,9.968,-0.183,-0.305,0.183,28.96,8.33,8.40,49.8,417.7,1,1,1,1
7226390,1,1,1,0.008,-0.050,0.100,0.000,3,1,1169,1363,0,0,-1,0,0.00,0.00,0.290,0.087,9.939,-0.183,-0.305,0.183,28.96,9.17,8.39,53.5,449.1,1,1,1,1
7236397,1,1,1,0.008,-0.050,0.100,0.000,3,1,1169,1363,0,0,-1,0,0.00,0.00,0.285,0.090,9.972,-0.183,-0.366,0.305,28.98,8.36,8.40,49.8,417.7,1,1,1,1
7246397,1,1,1,0.008,-0.050,0.100,0.000,3,1,1169,1363,0,0,-1,0,0.00,0.00,0.276,0.093,9.968,-0.244,-0.305,0.305,28.98,8.34,8.39,50.5,423.7,1,1,1,1
7256412,1,1,1,0.008,-0.050,0.100,0.000,3,1,1169,1363,0,0,-1,0,0.00,0.00,0.291,0.070,9.962,-0.183,-0.305,0.305,28.97,8.33,8.40,52.0,436.7,1,1,1,1
7266412,1,1,1,0.008,-0.050,0.100,0.000,3,1,1169,1363,0,0,-1,0,0.00,0.00,0.274,0.096,9.976,-0.122,-0.366,0.244,28.95,8.33,8.39,50.0,419.5,1,1,1,1
7276420,1,1,1,0.008,-0.050,0.100,0.000,3,1,1169,1363,0,0,-1,0,0.00,0.00,0.291,0.098,9.980,-0.061,-0.366,0.183,28.95,8.31,8.40,53.7,451.7,1,1,1,1
7286432,1,1,1,0.008,-0.050,0.100,0.000,3,1,1169,1363,0,0,-1,0,0.00,0.00,0.279,0.090,9.958,-0.183,-0.488,0.305,28.98,8.32,8.40,52.8,443.0,1,1,1,1
7296442,1,1,1,0.008,-0.050,0.100,0.000,3,1,1169,1363,0,0,-1,0,0.00,0.00,0.300,0.086,9.966,-0.122,-0.366,0.305,28.99,8.33,8.39,50.0,419.7,1,1,1,1
7306442,1,1,1,0.008,-0.050,0.100,0.000,3,1,1169,1363,0,0,-1,0,0.00,0.00,0.288,0.074,9.949,-0.122,-0.366,0.305,29.01,8.34,8.39,53.0,444.5,1,1,1,1
7316442,1,1,1,0.008,-0.050,0.100,0.000,3,1,1169,1363,0,0,-1,0,0.00,0.00,0.290,0.085,9.947,-0.244,-0.366,0.244,28.95,8.33,8.39,49.8,417.5,1,1,1,1
7326451,1,1,1,0.008,-0.050,0.100,0.000,3,1,1169,1363,0,0,-1,0,0.00,0.00,0.278,0.078,9.967,-0.244,-0.244,0.305,28.94,8.33,8.39,50.2,421.5,1,1,1,1
7336458,1,1,1,0.008,-0.050,0.100,0.000,3,1,1169,1363,0,0,-1,0,0.00,0.00,0.298,0.081,9.975,-0.183,-0.305,0.305,28.94,8.34,8.39,52.0,436.3,1,1,1,1
7346472,1,1,1,0.008,-0.050,0.100,0.000,3,1,1169,1363,0,0,-1,0,0.00,0.00,0.287,0.077,9.978,-0.183,-0.305,0.183,28.94,8.31,8.39,50.0,419.5,1,1,1,1
7356481,1,1,1,0.008,-0.050,0.100,0.000,3,1,1169,1363,0,0,-1,0,0.00,0.00,0.294,0.075,9.949,-0.122,-0.305,0.305,28.94,8.32,8.39,53.5,449.1,1,1,1,1
7366481,1,1,1,0.008,-0.050,0.100,0.000,3,1,1169,1363,0,0,-1,0,0.00,0.00,0.293,0.087,9.971,-0.061,-0.244,0.305,29.00,8.33,8.38,50.0,419.2,1,1,1,1
7376488,1,1,1,0.008,-0.050,0.100,0.000,3,1,1169,1363,0,0,-1,0,0.00,0.00,0.271,0.078,9.986,-0.305,-0.305,0.305,28.93,8.33,8.39,50.5,423.8,1,1,1,1
7386488,1,1,1,0.008,-0.050,0.100,0.000,3,1,1169,1363,0,0,-1,0,0.00,0.00,0.278,0.075,9.951,-0.305,-0.366,0.183,28.95,8.32,8.39,51.2,429.9,1,1,1,1
7396488,1,1,1,0.008,-0.050,0.100,0.000,3,1,1169,1363,0,0,-1,0,0.00,0.00,0.287,0.093,9.946,-0.244,-0.305,0.244,28.93,8.34,8.39,49.5,415.4,1,1,1,1
7406488,1,1,1,0.008,-0.050,0.100,0.000,3,1,1169,1363,0,0,-1,0,0.00,0.00,0.281,0.087,9.947,-0.183,-0.305,0.244,28.99,8.34,8.39,53.7,450.8,1,1,1,1
7416488,1,1,1,0.008,-0.050,0.100,0.000,3,1,1169,1363,0,0,-1,0,0.00,0.00,0.269,0.095,9.971,-0.183,-0.366,0.244,28.98,8.33,8.38,50.0,419.1,1,1,1,1
7426496,1,1,1,0.008,-0.050,0.100,0.000,3,1,1169,1362,0,-1,-1,-1,0.00,0.00,0.285,0.084,9.963,-0.183,-0.427,0.244,28.98,8.32,8.39,50.0,419.5,1,1,1,1
7436496,1,1,1,0.008,-0.050,0.100,0.000,3,1,1169,1363,0,1,-1,0,0.00,0.00,0.280,0.072,9.965,-0.183,-0.305,0.183,28.97,8.33,8.40,53.0,445.1,1,1,1,1
7446503,1,1,1,0.008,-0.050,0.100,0.000,3,1,1169,1363,0,0,-1,0,0.00,0.00,0.265,0.084,9.954,-0.183,-0.366,0.244,28.97,8.34,8.40,49.8,417.7,1,1,1,1
7456511,1,1,1,0.008,-0.050,0.100,0.000,3,1,1169,1363,0,0,-1,0,0.00,0.00,0.270,0.095,9.949,-0.183,-0.366,0.244,28.95,8.31,8.40,50.2,421.9,1,1,1,1
7466511,1,1,1,0.008,-0.050,0.100,0.000,3,1,1169,1363,0,0,-1,0,0.00,0.00,0.273,0.081,9.951,-0.244,-0.366,0.183,28.95,8.34,8.40,51.5,432.4,1,1,1,1
7476511,1,1,1,0.008,-0.050,0.100,0.000,3,1,1169,1363,0,0,-1,0,0.00,0.00,0.283,0.095,9.960,-0.122,-0.366,0.305,28.96,8.34,8.39,50.0,419.3,1,1,1,1
7486511,1,1,1,0.011,-0.075,0.150,0.000,3,1,1169,1363,0,0,-1,0,0.00,0.00,0.260,0.098,9.972,-0.244,-0.366,0.244,28.97,8.33,8.39,54.0,453.1,1,1,1,1
7496511,1,1,1,0.011,-0.075,0.150,0.000,3,1,1169,1363,0,0,-1,0,0.00,0.00,0.266,0.089,9.963,-0.183,-0.366,0.244,28.95,8.31,8.39,53.7,451.2,1,1,1,1
7506518,1,1,1,0.011,-0.075,0.150,0.000,3,1,1169,1363,0,0,-1,0,0.00,0.00,0.301,0.103,9.960,-0.122,-0.366,0.183,28.96,8.34,8.39,55.3,463.5,1,1,1,1
7516527,1,1,1,0.011,-0.075,0.150,0.000,3,1,1169,1363,0,0,-1,0,0.00,0.00,0.283,0.095,9.970,-0.122,-0.366,0.244,28.96,8.33,8.40,55.0,461.9,1,1,1,1
7526533,1,1,1,0.011,-0.075,0.150,0.000,3,1,1169,1363,0,0,-1,0,0.00,0.00,0.271,0.096,9.942,-0.183,-0.305,0.305,28.96,8.34,8.38,54.5,456.8,1,1,1,1
7536542,1,1,1,0.011,-0.075,0.150,0.000,3,1,1169,1363,0,0,-1,0,0.00,0.00,0.298,0.093,9.956,-0.183,-0.305,0.183,28.94,8.32,8.41,58.2,489.7,1,1,1,1
7546548,1,1,1,0.011,-0.075,0.150,0.000,3,1,1169,1363,0,0,-1,0,0.00,0.00,0.284,0.080,9.968,-0.183,-0.366,0.305,28.98,8.33,8.39,54.2,455.3,1,1,1,1
7556557,1,1,1,0.011,-0.075,0.150,0.000,3,1,1169,1363,0,0,-1,0,0.00,0.00,0.296,0.082,9.970,-0.244,-0.305,0.305,28.95,8.34,8.40,58.2,489.1,1,1,1,1
7566563,1,1,1,0.011,-0.075,0.150,0.000,3,1,1169,1363,0,0,-1,0,0.00,0.00,0.268,0.087,9.976,-0.122,-0.305,0.183,28.93,8.34,8.40,55.5,466.1,1,1,1,1
7576568,1,1,1,0.011,-0.075,0.150,0.000,3,1,1169,1363,0,0,-1,0,0.00,0.00,0.284,0.083,9.962,-0.244,-0.427,0.244,28.96,8.31,8.39,54.0,453.2,1,1,1,1
7586579,1,1,1,0.011,-0.075,0.150,0.000,3,1,1169,1363,0,0,-1,0,0.00,0.00,0.287,0.107,9.963,-0.122,-0.366,0.366,28.96,8.31,8.40,58.5,491.5,1,1,1,1
7596587,1,1,1,0.011,-0.075,0.150,0.000,3,1,1169,1363,0,0,-1,0,0.00,0.00,0.271,0.098,9.962,-0.122,-0.305,0.305,28.94,8.33,8.39,54.0,453.2,1,1,1,1
7606594,1,1,1,0.011,-0.075,0.150,0.000,3,1,1169,1363,0,0,-1,0,0.00,0.00,0.280,0.098,9.967,-0.183,-0.305,0.244,28.94,8.34,8.39,55.8,467.6,1,1,1,1
7616602,1,1,1,0.011,-0.075,0.150,0.000,3,1,1169,1363,0,0,-1,0,0.00,0.00,0.286,0.099,9.968,-0.183,-0.305,0.244,28.92,8.33,8.39,54.5,457.1,1,1,1,1
7626602,1,1,1,0.011,-0.075,0.150,0.000,3,1,1169,1363,0,0,-1,0,0.00,0.00,0.288,0.080,9.965,-0.061,-0.305,0.305,28.97,8.33,8.39,54.2,455.2,1,1,1,1
7636602,1,1,1,0.011,-0.075,0.150,0.000,3,1,1169,1363,0,0,-1,0,0.00,0.00,0.303,0.088,9.948,-0.122,-0.366,0.244,28.97,8.33,8.39,58.0,486.7,1,1,1,1
7646609,1,1,1,0.011,-0.075,0.150,0.000,3,1,1169,1363,0,0,-1,0,0.00,0.00,0.280,0.101,9.971,-0.122,-0.427,0.183,28.97,8.34,8.39,54.0,453.1,1,1,1,1
7656609,1,1,1,0.011,-0.075,0.150,0.000,3,1,1169,1363,0,0,-1,0,0.00,0.00,0.259,0.081,9.967,-0.183,-0.366,0.305,28.95,8.34,8.40,56.5,474.9,1,1,1,1
7666618,1,1,1,0.011,-0.075,0.150,0.000,3,1,1169,1363,0,0,-1,0,0.00,0.00,0.283,0.080,9.947,-0.122,-0.305,0.305,28.96,8.33,8.38,54.5,456.9,1,1,1,1
7676618,1,1,1,0.011,-0.075,0.150,0.000,3,1,1169,1363,0,0,-1,0,0.00,0.00,0.290,0.098,9.969,-0.061,-0.427,0.305,28.95,8.33,8.38,54.2,454.8,1,1,1,1
7686624,1,1,1,0.011,-0.075,0.150,0.000,3,1,1169,1363,0,0,-1,0,0.00,0.00,0.286,0.099,9.980,-0.061,-0.305,0.366,28.99,8.33,8.39,57.8,484.7,1,1,1,1
7696633,1,1,1,0.011,-0.075,0.150,0.000,3,1,1169,1363,0,0,-1,0,0.00,0.00,0.275,0.078,9.967,-0.183,-0.366,0.305,28.93,8.34,8.39,54.0,452.8,1,1,1,1
7706639,1,1,1,0.011,-0.075,0.150,0.000,3,1,1169,1363,0,0,-1,0,0.00,0.00,0.271,0.090,9.946,-0.183,-0.366,0.244,28.96,8.25,8.39,57.2,480.3,1,1,1,1
7716648,1,1,1,0.011,-0.075,0.150,0.000,3,1,1169,1363,0,0,-1,0,0.00,0.00,0.267,0.093,9.962,-0.122,-0.305,0.366,28.93,8.33,8.39,58.5,490.5,1,1,1,1
7726648,1,1,1,0.011,-0.075,0.150,0.000,3,1,1169,1363,0,0,-1,0,0.00,0.00,0.278,0.085,9.952,-0.122,-0.305,0.366,28.99,8.31,8.38,54.0,452.7,1,1,1,1
7736648,1,1,1,0.011,-0.075,0.150,0.000,3,1,1169,1363,0,0,-1,0,0.00,0.00,0.263,0.087,9.978,-0.122,-0.305,0.244,28.99,8.33,8.40,56.0,470.2,1,1,1,1
7746655,1,1,1,0.011,-0.075,0.150,0.000,3,1,1169,1363,0,0,-1,0,0.00,0.00,0.280,0.074,9.963,-0.244,-0.305,0.305,28.97,8.34,8.40,55.0,462.0,1,1,1,1
7756655,1,1,1,0.011,-0.075,0.150,0.000,3,1,1169,1363,0,0,-1,0,0.00,0.00,0.277,0.073,9.967,-0.061,-0.366,0.305,28.97,8.31,8.40,54.2,456.0,1,1,1,1
7766655,1,1,1,0.011,-0.075,0.150,0.000,3,1,1169,1363,0,0,-1,0,0.00,0.00,0.261,0.089,9.963,-0.183,-0.366,0.244,28.91,8.31,8.39,58.2,488.6,1,1,1,1
7776663,1,1,1,0.011,-0.075,0.150,0.000,3,1,1169,1363,0,0,-1,0,0.00,0.00,0.297,0.099,9.947,-0.122,-0.305,0.305,28.94,8.32,8.40,54.0,453.7,1,1,1,1
7786663,1,1,1,0.011,-0.075,0.150,0.000,3,1,1169,1363,0,0,-1,0,0.00,0.00,0.269,0.095,9.965,-0.183,-0.305,0.244,28.98,8.33,8.39,57.2,480.5,1,1,1,1
7796663,1,1,1,0.011,-0.075,0.150,0.000,3,1,1169,1363,0,0,-1,0,0.00,0.00,0.277,0.066,9.991,-0.122,-0.366,0.244,28.95,8.33,8.39,53.5,449.0,1,1,1,1
7806663,1,1,1,0.011,-0.075,0.150,0.000,3,1,1169,1363,0,0,-1,0,0.00,0.00,0.263,0.093,9.969,-0.061,-0.305,0.244,28.96,8.33,8.39,54.8,459.6,1,1,1,1
7816663,1,1,1,0.011,-0.075,0.150,0.000,3,1,1169,1363,0,0,-1,0,0.00,0.00,0.284,0.088,9.971,-0.183,-0.244,0.244,28.97,8.33,8.40,57.5,482.9,1,1,1,1
7826663,1,1,1,0.011,-0.075,0.150,0.000,3,1,1169,1363,0,0,-1,0,0.00,0.00,0.277,0.095,9.967,-0.183,-0.366,0.244,29.00,8.33,8.38,54.2,454.8,1,1,1,1
7836670,1,1,1,0.011,-0.075,0.150,0.000,3,1,1169,1363,0,0,-1,0,0.00,0.00,0.281,0.075,9.969,-0.183,-0.366,0.305,29.00,8.35,8.40,57.8,485.2,1,1,1,1
7846670,1,1,1,0.011,-0.075,0.150,0.000,3,1,1169,1363,0,0,-1,0,0.00,0.00,0.269,0.084,9.983,-0.122,-0.427,0.244,28.92,8.34,8.38,54.0,452.7,1,1,1,1
7856672,1,1,1,0.011,-0.075,0.150,0.000,3,1,1169,1363,0,0,-1,0,0.00,0.00,0.289,0.121,9.976,-0.183,-0.305,0.305,28.94,8.31,8.39,53.7,450.8,1,1,1,1
7866679,1,1,1,0.011,-0.075,0.150,0.000,3,1,1169,1363,0,0,-1,0,0.00,0.00,0.285,0.083,9.946,-0.122,-0.427,0.305,28.93,8.33,8.39,56.8,476.1,1,1,1,1
7876687,1,1,1,0.011,-0.075,0.150,0.000,3,1,1169,1363,0,0,-1,0,0.00,0.00,0.271,0.083,9.963,-0.183,-0.366,0.183,28.93,8.29,8.39,54.8,459.6,1,1,1,1
7886687,1,1,1,0.011,-0.075,0.150,0.000,3,1,1169,1363,0,0,-1,0,0.00,0.00,0.285,0.101,9.953,-0.244,-0.366,0.244,28.93,9.24,8.40,54.2,455.6,1,1,1,1
7896694,1,1,1,0.011,-0.075,0.150,0.000,3,1,1169,1363,0,0,-1,0,0.00,0.00,0.275,0.084,9.960,-0.061,-0.366,0.244,28.95,8.33,8.39,57.8,484.7,1,1,1,1
7906694,1,1,1,0.011,-0.075,0.150,0.000,3,1,1169,1363,0,0,-1,0,0.00,0.00,0.278,0.093,9.975,-0.122,-0.366,0.305,28.95,8.33,8.38,53.7,450.6,1,1,1,1
7916694,1,1,1,0.011,-0.075,0.150,0.000,3,1,1169,1363,0,0,-1,0,0.00,0.00,0.296,0.101,9.975,-0.244,-0.305,0.244,28.95,8.35,8.40,57.5,483.3,1,1,1,1
7926694,1,1,1,0.011,-0.075,0.150,0.000,3,1,1169,1363,0,0,-1,0,0.00,0.00,0.287,0.083,9.948,-0.122,-0.366,0.244,28.95,8.33,8.40,53.7,451.3,1,1,1,1
7936703,1,1,1,0.011,-0.075,0.150,0.000,3,1,1169,1363,0,0,-1,0,0.00,0.00,0.278,0.086,9.966,-0.122,-0.427,0.305,28.98,8.33,8.41,54.2,456.2,1,1,1,1
7946709,1,1,1,0.011,-0.075,0.150,0.000,3,1,1169,1363,0,0,-1,0,0.00,0.00,0.291,0.091,9.971,-0.183,-0.366,0.366,28.94,8.33,8.40,57.2,480.9,1,1,1,1
7956709,1,1,1,0.011,-0.075,0.150,0.000,3,1,1169,1363,0,0,-1,0,0.00,0.00,0.271,0.086,9.963,-0.183,-0.305,0.244,28.91,8.33,8.40,54.0,453.4,1,1,1,1
7966709,1,1,1,0.011,-0.075,0.150,0.000,3,1,1169,1363,0,0,-1,0,0.00,0.00,0.283,0.092,9.960,-0.122,-0.366,0.244,28.90,8.34,8.40,57.8,485.2,1,1,1,1
7976718,1,1,1,0.011,-0.075,0.150,0.000,3,1,1169,1363,0,0,-1,0,0.00,0.00,0.281,0.099,9.957,-0.061,-0.366,0.244,28.95,8.35,8.39,53.7,451.0,1,1,1,1
7986718,1,1,1,0.011,-0.075,0.150,0.000,3,1,1169,1363,0,0,-1,0,0.00,0.00,0.265,0.099,9.935,-0.244,-0.366,0.244,28.98,8.32,8.41,54.8,460.5,1,1,1,1
7996724,1,1,1,0.011,-0.075,0.150,0.000,3,1,1169,1363,0,0,-1,0,0.00,0.00,0.281,0.089,9.958,-0.183,-0.366,0.305,28.95,8.31,8.40,56.8,476.5,1,1,1,1
8006724,1,1,1,0.011,-0.075,0.150,0.000,3,1,1169,1363,0,0,-1,0,0.00,0.00,0.272,0.095,9.963,-0.122,-0.366,0.305,28.98,8.35,8.39,54.2,455.0,1,1,1,1
8016733,1,1,1,0.011,-0.075,0.150,0.000,3,1,1169,1363,0,0,-1,0,0.00,0.00,0.287,0.104,9.958,-0.122,-0.305,0.244,28.94,8.33,8.39,54.2,455.4,1,1,1,1
8026740,1,1,1,0.011,-0.075,0.150,0.000,3,1,1169,1363,0,0,-1,0,0.00,0.00,0.279,0.098,9.977,-0.122,-0.305,0.305,28.94,8.48,8.40,57.5,482.8,1,1,1,1
8036740,1,1,1,0.011,-0.075,0.150,0.000,3,1,1169,1363,0,0,-1,0,0.00,0.00,0.283,0.084,9.957,-0.122,-0.305,0.366,28.99,8.26,8.38,54.2,454.8,1,1,1,1
8046748,1,1,1,0.011,-0.075,0.150,0.000,3,1,1169,1363,0,0,-1,0,0.00,0.00,0.278,0.089,9.966,-0.183,-0.305,0.244,28.95,8.35,8.40,57.2,480.8,1,1,1,1
8056748,1,1,1,0.011,-0.075,0.150,0.000,3,1,1169,1363,0,0,-1,0,0.00,0.00,0.266,0.088,9.940,-0.183,-0.305,0.244,28.97,8.31,8.39,54.0,453.3,1,1,1,1
8066748,1,1,1,0.011,-0.075,0.150,0.000,3,1,1169,1363,0,0,-1,0,0.00,0.00,0.279,0.081,9.959,-0.183,-0.244,0.244,28.98,8.31,8.39,54.2,455.2,1,1,1,1
8076748,1,1,1,0.011,-0.075,0.150,0.000,3,1,1169,1363,0,0,-1,0,0.00,0.00,0.279,0.104,9.960,-0.183,-0.427,0.366,28.96,8.33,8.39,56.5,474.2,1,1,1,1
8086755,1,1,1,0.011,-0.075,0.150,0.000,3,1,1169,1362,0,-1,-1,-1,0.00,-0.29,0.258,0.081,9.979,-0.061,-0.305,0.244,28.96,8.33,8.38,54.2,454.8,1,1,1,1
8096755,1,1,1,0.011,-0.075,0.150,0.000,3,1,1169,1363,0,1,-1,0,0.00,-0.29,0.282,0.084,9.952,-0.122,-0.305,0.183,28.96,8.33,8.39,58.2,489.0,1,1,1,1
8106755,1,1,1,0.011,-0.075,0.150,0.000,3,1,1169,1363,0,0,-1,0,0.00,-0.29,0.293,0.089,9.960,-0.122,-0.366,0.305,28.96,8.34,8.40,54.0,453.9,1,1,1,1
8116755,1,1,1,0.011,-0.075,0.150,0.000,3,1,1169,1363,0,0,-1,0,0.00,-0.29,0.291,0.093,9.956,-0.183,-0.305,0.183,29.00,8.32,8.40,54.5,457.9,1,1,1,1
8126763,1,1,1,0.011,-0.075,0.150,0.000,3,1,1169,1363,0,0,-1,0,0.00,-0.29,0.293,0.097,9.982,-0.183,-0.305,0.305,28.97,8.34,8.39,56.0,469.9,1,1,1,1
8136776,1,1,1,0.011,-0.075,0.150,0.000,3,1,1169,1363,0,0,-1,0,0.00,0.29,0.297,0.089,9.983,-0.122,-0.305,0.305,28.92,8.34,8.39,54.2,455.4,1,1,1,1
8146778,1,1,1,0.011,-0.075,0.150,0.000,3,1,1169,1363,0,0,-1,0,0.00,0.29,0.287,0.070,9.976,-0.061,-0.366,0.244,28.96,8.33,8.39,54.5,457.5,1,1,1,1
8156778,1,1,1,0.011,-0.075,0.150,0.000,3,1,1169,1363,0,0,-1,0,0.00,0.29,0.292,0.092,9.973,-0.122,-0.305,0.122,28.96,8.33,8.39,57.8,484.7,1,1,1,1
8166778,1,1,1,0.011,-0.075,0.150,0.000,3,1,1169,1363,0,0,-1,0,0.00,0.29,0.283,0.101,9.968,-0.122,-0.305,0.244,28.95,8.31,8.38,54.5,456.6,1,1,1,1
8176785,1,1,1,0.011,-0.075,0.150,0.000,3,1,1169,1363,0,0,-1,0,0.00,0.29,0.278,0.073,9.971,-0.122,-0.305,0.183,28.94,8.33,8.40,57.5,483.0,1,1,1,1
8186794,1,1,1,0.011,-0.075,0.150,0.000,3,1,1169,1363,0,0,-1,0,0.00,0.00,0.270,0.075,9.979,-0.122,-0.305,0.122,28.98,8.34,8.39,53.7,451.2,1,1,1,1
8196800,1,1,1,0.011,-0.075,0.150,0.000,3,1,1169,1363,0,0,-1,0,0.00,0.00,0.280,0.078,9.974,-0.122,-0.366,0.244,29.01,8.33,8.39,54.5,457.5,1,1,1,1
8206800,1,1,1,0.011,-0.075,0.150,0.000,3,1,1169,1363,0,0,-1,0,0.00,0.00,0.281,0.083,9.960,-0.183,-0.366,0.244,28.94,8.32,8.39,56.5,474.2,1,1,1,1
8216800,1,1,1,0.011,-0.075,0.150,0.000,3,1,1169,1363,0,0,-1,0,0.00,0.00,0.299,0.069,9.974,-0.122,-0.366,0.244,28.96,8.34,8.39,54.2,455.2,1,1,1,1
8226809,1,1,1,0.011,-0.075,0.150,0.000,3,1,1169,1362,0,-1,-1,-1,0.00,0.00,0.277,0.089,9.977,-0.244,-0.244,0.244,28.96,8.33,8.39,58.2,488.9,1,1,1,1
8236809,1,1,1,0.011,-0.075,0.150,0.000,3,1,1169,1363,0,1,-1,0,0.00,0.00,0.274,0.105,9.964,-0.183,-0.305,0.244,28.95,8.33,8.39,53.7,450.8,1,1,1,1
8246809,1,1,1,0.011,-0.075,0.150,0.000,3,1,1169,1363,0,0,-1,0,0.00,0.00,0.280,0.101,9.955,-0.244,-0.366,0.366,28.96,8.34,8.39,55.5,465.7,1,1,1,1
8256815,1,1,1,0.011,-0.075,0.150,0.000,3,1,1169,1363,0,0,-1,0,0.00,0.00,0.290,0.079,9.968,-0.183,-0.427,0.366,28.97,8.34,8.40,55.5,466.3,1,1,1,1
8266824,1,1,1,0.011,-0.075,0.150,0.000,3,1,1169,1363,0,0,-1,0,0.00,0.00,0.286,0.102,9.959,-0.122,-0.366,0.305,28.90,8.31,8.38,54.2,454.8,1,1,1,1
8276824,1,1,1,0.011,-0.075,0.150,0.000,3,1,1169,1363,0,0,-1,0,0.00,0.00,0.284,0.093,9.951,-0.122,-0.305,0.244,28.98,8.34,8.40,58.0,487.1,1,1,1,1
8286834,1,1,1,0.011,-0.075,0.150,0.000,3,1,1169,1363,0,0,-1,0,0.00,0.00,0.289,0.090,9.955,-0.183,-0.305,0.305,28.96,8.39,8.38,54.0,452.5,1,1,1,1
8296835,1,1,1,0.011,-0.075,0.150,0.000,3,1,1169,1363,0,0,-1,0,0.00,0.00,0.293,0.095,9.969,-0.183,-0.366,0.244,29.02,8.31,8.38,54.2,454.3,1,1,1,1
8306839,1,1,1,0.011,-0.075,0.150,0.000,3,1,1169,1363,0,0,-1,0,0.00,0.00,0.289,0.093,9.950,-0.183,-0.366,0.183,28.98,8.33,8.39,58.8,492.7,1,1,1,1
8316846,1,1,1,0.011,-0.075,0.150,0.000,3,1,1169,1363,0,0,-1,0,0.00,0.00,0.291,0.092,9.944,-0.244,-0.366,0.244,28.97,8.33,8.38,54.2,454.7,1,1,1,1
8326846,1,1,1,0.011,-0.075,0.150,0.000,3,1,1169,1363,0,0,-1,0,0.00,0.00,0.267,0.089,9.963,-0.244,-0.366,0.244,28.97,8.31,8.39,55.3,463.5,1,1,1,1
8336846,1,1,1,0.011,-0.075,0.150,0.000,3,1,1169,1363,0,0,-1,0,0.00,0.00,0.268,0.087,9.958,-0.183,-0.366,0.244,28.91,8.33,8.39,56.0,470.0,1,1,1,1
8346846,1,1,1,0.011,-0.075,0.150,0.000,3,1,1169,1363,0,0,-1,0,0.00,0.00,0.293,0.099,9.968,-0.244,-0.305,0.244,28.95,8.31,8.39,54.0,452.9,1,1,1,1
8356846,1,1,1,0.011,-0.075,0.150,0.000,3,1,1169,1363,0,0,-1,0,0.00,0.00,0.289,0.087,9.965,-0.183,-0.244,0.183,28.99,8.19,8.39,58.2,489.0,1,1,1,1
8366854,1,1,1,0.011,-0.075,0.150,0.000,3,1,1169,1363,0,0,-1,0,0.00,0.00,0.283,0.102,9.966,-0.183,-0.366,0.305,28.96,8.34,8.39,54.0,453.1,1,1,1,1
8376861,1,1,1,0.011,-0.075,0.150,0.000,3,1,1169,1363,0,0,-1,0,0.00,0.00,0.294,0.076,9.937,-0.244,-0.305,0.305,28.96,8.33,8.39,55.5,465.9,1,1,1,1
8386861,1,1,1,0.011,-0.075,0.150,0.000,3,1,1169,1363,0,0,-1,0,0.00,0.00,0.293,0.087,9.955,-0.183,-0.305,0.183,28.97,8.31,8.40,55.3,464.0,1,1,1,1
8396861,1,1,1,0.011,-0.075,0.150,0.000,3,1,1169,1363,0,0,-1,0,0.00,0.00,0.293,0.080,9.965,-0.183,-0.366,0.244,28.92,8.32,8.40,54.5,457.8,1,1,1,1
8406861,1,1,1,0.011,-0.075,0.150,0.000,3,1,1169,1363,0,0,-1,0,0.00,0.00,0.283,0.098,9.953,-0.183,-0.427,0.305,28.96,8.31,8.39,58.5,490.7,1,1,1,1
8416861,1,1,1,0.011,-0.075,0.150,0.000,3,1,1169,1363,0,0,-1,0,0.00,0.00,0.263,0.102,9.951,-0.183,-0.305,0.366,28.96,8.33,8.38,54.0,452.6,1,1,1,1
8426861,1,1,1,0.011,-0.075,0.150,0.000,3,1,1169,1363,0,0,-1,0,0.00,0.00,0.283,0.081,9.960,-0.183,-0.305,0.305,28.96,8.33,8.39,56.2,472.0,1,1,1,1
8436861,1,1,1,0.011,-0.075,0.150,0.000,3,1,1169,1363,0,0,-1,0,0.00,0.00,0.275,0.083,9.962,-0.183,-0.305,0.305,28.94,8.32,8.39,58.2,488.9,1,1,1,1
8446861,1,1,1,0.011,-0.075,0.150,0.000,3,1,1169,1362,0,-1,-1,-1,0.00,0.00,0.275,0.086,9.965,-0.122,-0.305,0.244,28.93,8.33,8.39,54.2,455.2,1,1,1,1
8456869,1,1,1,0.011,-0.075,0.150,0.000,3,1,1169,1363,0,1,-1,0,0.00,0.00,0.284,0.101,9.960,-0.183,-0.366,0.244,28.92,8.31,8.40,55.0,462.1,1,1,1,1
8466869,1,1,1,0.011,-0.075,0.150,0.000,3,1,1169,1363,0,0,-1,0,0.00,0.00,0.279,0.098,9.965,-0.183,-0.366,0.244,29.00,8.34,8.39,56.2,472.0,1,1,1,1
8476876,1,1,1,0.011,-0.075,0.150,0.000,3,1,1169,1363,0,0,-1,0,0.00,0.00,0.293,0.101,9.974,-0.122,-0.305,0.305,28.96,8.31,8.40,54.0,453.4,1,1,1,1
8486885,1,1,1,0.011,-0.075,0.150,0.000,3,1,1169,1363,0,0,-1,0,0.00,0.00,0.286,0.082,9.968,-0.183,-0.244,0.305,28.99,8.27,8.39,58.2,488.6,1,1,1,1
8496885,1,1,1,0.011,-0.075,0.150,0.000,3,1,1169,1363,0,0,-1,0,0.00,0.00,0.284,0.078,9.968,-0.183,-0.366,0.244,28.99,9.33,8.39,54.0,453.1,1,1,1,1
8506891,1,1,1,0.011,-0.075,0.150,0.000,3,1,1169,1363,0,0,-1,0,0.00,0.00,0.268,0.096,9.972,-0.183,-0.366,0.244,28.96,8.31,8.39,55.3,463.5,1,1,1,1
8516900,1,1,1,0.011,-0.075,0.150,0.000,3,1,1169,1363,0,0,-1,0,0.00,0.00,0.275,0.099,9.965,-0.061,-0.305,0.244,28.96,8.33,8.39,55.0,461.7,1,1,1,1
8526906,1,1,1,0.011,-0.075,0.150,0.000,3,1,1169,1363,0,0,-1,0,0.00,0.00,0.284,0.098,9.980,-0.183,-0.366,0.244,28.93,8.31,8.39,54.2,455.3,1,1,1,1
8536907,1,1,1,0.011,-0.075,0.150,0.000,3,1,1169,1363,0,0,-1,0,0.00,0.00,0.291,0.074,9.965,-0.244,-0.305,0.183,28.98,8.33,8.40,58.5,491.3,1,1,1,1
8546922,1,1,1,0.011,-0.075,0.150,0.000,3,1,1169,1363,0,0,-1,0,0.00,0.00,0.274,0.095,9.962,-0.244,-0.305,0.244,29.00,8.33,8.40,54.0,453.6,1,1,1,1
8556922,1,1,1,0.011,-0.075,0.150,0.000,3,1,1169,1363,0,0,-1,0,0.00,0.00,0.289,0.080,9.971,-0.122,-0.305,0.183,28.94,8.32,8.40,56.0,470.2,1,1,1,1
8566922,1,1,1,0.011,-0.075,0.150,0.000,3,1,1169,1363,0,0,-1,0,0.00,0.00,0.289,0.099,9.969,-0.183,-0.305,0.305,28.95,8.31,8.39,54.5,457.5,1,1,1,1
8576930,1,1,1,0.011,-0.075,0.150,0.000,3,1,1169,1363,0,0,-1,0,0.00,0.00,0.289,0.064,9.977,-0.122,-0.305,0.366,28.95,8.34,8.39,54.0,453.3,1,1,1,1
8586937,1,1,1,0.011,-0.075,0.150,0.000,3,1,1169,1363,0,0,-1,0,0.00,0.00,0.262,0.078,9.979,-0.183,-0.305,0.305,28.92,8.33,8.39,55.3,463.3,1,1,1,1
8596937,1,1,1,0.011,-0.075,0.150,0.000,3,1,1169,1363,0,0,-1,0,0.00,0.00,0.289,0.085,9.970,-0.122,-0.305,0.305,28.98,8.33,8.39,55.0,461.5,1,1,1,1
8606937,1,1,1,0.011,-0.075,0.150,0.000,3,1,1169,1363,0,0,-1,0,0.00,0.00,0.293,0.093,9.938,-0.061,-0.366,0.244,28.98,8.33,8.39,54.5,457.3,1,1,1,1
8616945,1,1,1,0.011,-0.075,0.150,0.000,3,1,1169,1363,0,0,-1,0,0.00,0.00,0.280,0.078,9.937,-0.122,-0.366,0.244,28.98,8.21,8.39,58.2,488.6,1,1,1,1
8626952,1,1,1,0.011,-0.075,0.150,0.000,3,1,1169,1363,0,0,-1,0,0.00,0.00,0.279,0.090,9.965,-0.122,-0.366,0.305,28.95,8.33,8.39,54.2,455.0,1,1,1,1
8636961,1,1,1,0.011,-0.075,0.150,0.000,3,1,1169,1363,0,0,-1,0,0.00,0.00,0.279,0.080,9.970,-0.183,-0.366,0.244,28.96,8.33,8.39,56.2,471.9,1,1,1,1
8646976,1,1,1,0.011,-0.075,0.150,0.000,3,1,1169,1363,0,0,-1,0,0.00,0.00,0.274,0.086,9.962,-0.183,-0.366,0.244,28.96,8.33,8.39,54.5,457.3,1,1,1,1
8656976,1,1,1,0.011,-0.075,0.150,0.000,3,1,1169,1363,0,0,-1,0,0.00,0.00,0.281,0.095,9.975,-0.122,-0.366,0.305,28.97,8.34,8.39,54.2,455.0,1,1,1,1
8666976,1,1,1,0.011,-0.075,0.150,0.000,3,1,1169,1363,0,0,-1,0,0.00,0.00,0.282,0.101,9.995,-0.244,-0.305,0.244,28.99,8.33,8.39,58.8,493.1,1,1,1,1
8676976,1,1,1,0.011,-0.075,0.150,0.000,3,1,1169,1363,0,0,-1,0,0.00,0.00,0.262,0.091,9.966,-0.183,-0.244,0.244,28.97,8.33,8.39,54.2,455.0,1,1,1,1
8686976,1,1,1,0.015,-0.100,0.200,0.000,3,1,1169,1363,0,0,-1,0,0.00,0.00,0.293,0.082,9.954,-0.061,-0.366,0.305,28.98,8.31,8.39,57.0,478.4,1,1,1,1
8696976,1,1,1,0.015,-0.100,0.200,0.000,3,1,1169,1363,0,0,-1,0,0.00,0.00,0.296,0.101,9.938,-0.122,-0.366,0.244,28.95,8.32,8.39,60.5,507.4,1,1,1,1
8706982,1,1,1,0.015,-0.100,0.200,0.000,3,1,1169,1363,0,0,-1,0,0.00,0.00,0.282,0.075,9.957,-0.244,-0.427,0.305,28.94,8.31,8.38,60.7,509.2,1,1,1,1
8716991,1,1,1,0.015,-0.100,0.200,0.000,3,1,1169,1363,0,0,-1,0,0.00,0.00,0.274,0.071,9.981,-0.183,-0.305,0.305,28.95,8.33,8.38,63.8,534.1,1,1,1,1
8726998,1,1,1,0.015,-0.100,0.200,0.000,3,1,1169,1363,0,0,-1,0,0.00,0.00,0.291,0.087,9.964,-0.122,-0.305,0.244,28.92,8.32,8.39,61.3,514.0,1,1,1,1
8737006,1,1,1,0.015,-0.100,0.200,0.000,3,1,1169,1363,0,0,-1,0,0.00,0.00,0.282,0.095,9.969,-0.122,-0.305,0.305,28.95,8.31,8.40,60.2,506.1,1,1,1,1
8747006,1,1,1,0.015,-0.100,0.200,0.000,3,1,1169,1363,0,0,-1,0,0.00,0.00,0.275,0.089,9.965,-0.244,-0.305,0.244,28.96,8.34,8.39,65.0,545.1,1,1,1,1
8757006,1,1,1,0.015,-0.100,0.200,0.000,3,1,1169,1363,0,0,-1,0,0.00,0.00,0.297,0.093,9.965,-0.183,-0.366,0.183,28.96,8.31,8.39,60.2,505.4,1,1,1,1
8767013,1,1,1,0.015,-0.100,0.200,0.000,3,1,1169,1363,0,0,-1,0,0.00,0.00,0.286,0.092,9.949,-0.122,-0.366,0.244,28.95,8.33,8.39,62.5,524.1,1,1,1,1
8777013,1,1,1,0.015,-0.100,0.200,0.000,3,1,1169,1363,0,0,-1,0,0.00,0.00,0.291,0.092,9.980,-0.122,-0.366,0.305,28.96,8.33,8.38,60.5,507.2,1,1,1,1
8787021,1,1,1,0.015,-0.100,0.200,0.000,3,1,1169,1363,0,0,-1,0,0.00,0.00,0.271,0.071,9.970,-0.244,-0.305,0.244,28.98,8.34,8.39,60.7,509.5,1,1,1,1
8797028,1,1,1,0.015,-0.100,0.200,0.000,3,1,1169,1363,0,0,-1,0,0.00,0.00,0.274,0.083,9.958,-0.183,-0.305,0.244,28.95,8.31,8.39,63.8,535.0,1,1,1,1
8807028,1,1,1,0.015,-0.100,0.200,0.000,3,1,1169,1363,0,0,-1,0,0.00,0.00,0.278,0.089,9.971,-0.122,-0.366,0.305,29.03,8.34,8.38,60.2,505.0,1,1,1,1
8817028,1,1,1,0.015,-0.100,0.200,0.000,3,1,1169,1363,0,0,-1,0,0.00,0.00,0.293,0.101,9.949,-0.183,-0.244,0.305,29.03,8.31,8.38,64.2,538.7,1,1,1,1
8827036,1,1,1,0.015,-0.100,0.200,0.000,3,1,1169,1363,0,0,-1,0,0.00,0.00,0.283,0.094,9.964,-0.122,-0.305,0.244,28.97,8.34,8.38,60.2,505.0,1,1,1,1
8837043,1,1,1,0.015,-0.100,0.200,0.000,3,1,1169,1363,0,0,-1,0,0.00,0.00,0.290,0.092,9.972,-0.122,-0.305,0.244,28.97,8.31,8.39,61.0,511.9,1,1,1,1
8847051,1,1,1,0.015,-0.100,0.200,0.000,3,1,1169,1363,0,0,-1,0,0.00,0.00,0.289,0.098,9.976,-0.122,-0.366,0.305,28.95,8.31,8.39,62.2,522.0,1,1,1,1
8857052,1,1,1,0.015,-0.100,0.200,0.000,3,1,1169,1363,0,0,-1,0,0.00,0.00,0.275,0.086,9.972,-0.122,-0.244,0.244,29.01,8.32,8.37,60.2,504.4,1,1,1,1
8867058,1,1,1,0.015,-0.100,0.200,0.000,3,1,1169,1363,0,0,-1,0,0.00,0.00,0.274,0.095,9.949,-0.183,-0.305,0.183,28.95,8.33,8.39,64.5,541.2,1,1,1,1
8877058,1,1,1,0.015,-0.100,0.200,0.000,3,1,1169,1363,0,0,-1,0,0.00,0.00,0.277,0.077,9.962,-0.122,-0.366,0.305,28.92,8.33,8.38,63.8,534.5,1,1,1,1
8887067,1,1,1,0.015,-0.100,0.200,0.000,3,1,1169,1363,0,0,-1,0,0.00,0.00,0.271,0.092,9.981,-0.061,-0.366,0.305,28.95,8.33,8.40,60.0,503.8,1,1,1,1
8897073,1,1,1,0.015,-0.100,0.200,0.000,3,1,1169,1363,0,0,-1,0,0.00,0.00,0.271,0.084,9.974,-0.244,-0.366,0.244,28.93,8.31,8.39,64.2,538.9,1,1,1,1
8907082,1,1,1,0.015,-0.100,0.200,0.000,3,1,1169,1363,0,0,-1,0,0.00,0.00,0.285,0.075,9.950,-0.183,-0.244,0.244,28.96,7.86,8.38,60.2,505.1,1,1,1,1
8917082,1,1,1,0.015,-0.100,0.200,0.000,3,1,1169,1363,0,0,-1,0,0.00,0.00,0.287,0.083,9.956,-0.244,-0.305,0.244,28.92,8.33,8.40,61.0,512.2,1,1,1,1
8927089,1,1,1,0.015,-0.100,0.200,0.000,3,1,1169,1363,0,0,-1,0,0.00,0.00,0.256,0.071,9.963,-0.183,-0.244,0.244,29.00,8.33,8.39,63.2,530.8,1,1,1,1
8937097,1,1,1,0.015,-0.100,0.200,0.000,3,1,1169,1363,0,0,-1,0,0.00,0.00,0.251,0.099,9.977,-0.183,-0.366,0.305,28.96,8.33,8.39,60.2,505.3,1,1,1,1
8947104,1,1,1,0.015,-0.100,0.200,0.000,3,1,1169,1363,0,0,-1,0,0.00,0.00,0.295,0.101,9.969,-0.183,-0.305,0.305,28.95,8.31,8.38,64.2,538.4,1,1,1,1
8957112,1,1,1,0.015,-0.100,0.200,0.000,3,1,1169,1363,0,0,-1,0,0.00,0.00,0.295,0.096,9.965,-0.061,-0.305,0.244,28.99,8.31,8.39,60.2,505.3,1,1,1,1
8967112,1,1,1,0.015,-0.100,0.200,0.000,3,1,1169,1363,0,0,-1,0,0.00,0.00,0.287,0.088,9.961,-0.122,-0.305,0.244,28.96,8.31,8.39,62.0,520.1,1,1,1,1
8977112,1,1,1,0.015,-0.100,0.200,0.000,3,1,1169,1363,0,0,-1,0,0.00,0.00,0.301,0.090,9.977,-0.244,-0.366,0.244,28.98,8.31,8.40,61.5,516.8,1,1,1,1
8987119,1,1,1,0.015,-0.100,0.200,0.000,3,1,1169,1363,0,0,-1,0,0.00,0.00,0.282,0.081,9.962,-0.061,-0.366,0.244,28.95,8.32,8.38,60.2,505.0,1,1,1,1
8997127,1,1,1,0.015,-0.100,0.200,0.000,3,1,1169,1363,0,0,-1,0,0.00,0.00,0.287,0.072,9.965,-0.061,-0.305,0.244,28.97,8.34,8.39,64.2,539.1,1,1,1,1
9007127,1,1,1,0.015,-0.100,0.200,0.000,3,1,1169,1363,0,0,-1,0,0.00,0.00,0.296,0.088,9.985,-0.183,-0.366,0.305,28.97,8.33,8.39,59.5,499.2,1,1,1,1
9017134,1,1,1,0.015,-0.100,0.200,0.000,3,1,1169,1363,0,0,-1,0,0.00,0.00,0.276,0.099,9.961,-0.183,-0.366,0.366,28.92,8.33,8.39,60.0,503.2,1,1,1,1
9027134,1,1,1,0.015,-0.100,0.200,0.000,3,1,1169,1363,0,0,-1,0,0.00,0.00,0.277,0.077,9.954,-0.183,-0.366,0.244,28.95,8.34,8.40,64.8,543.8,1,1,1,1
9037143,1,1,1,0.015,-0.100,0.200,0.000,3,1,1169,1363,0,0,-1,0,0.00,0.00,0.287,0.077,9.950,-0.183,-0.427,0.244,28.99,8.33,8.39,60.2,505.8,1,1,1,1
9047143,1,1,1,0.015,-0.100,0.200,0.000,3,1,1169,1363,0,0,-1,0,0.00,0.00,0.271,0.094,9.969,-0.183,-0.305,0.366,28.93,8.32,8.39,61.3,513.8,1,1,1,1
9057149,1,1,1,0.015,-0.100,0.200,0.000,3,1,1169,1363,0,0,-1,0,0.00,0.00,0.285,0.090,9.966,-0.244,-0.244,0.366,28.94,8.33,8.39,62.2,522.5,1,1,1,1
9067149,1,1,1,0.015,-0.100,0.200,0.000,3,1,1169,1363,0,0,-1,0,0.00,0.00,0.279,0.087,9.985,-0.122,-0.366,0.305,28.96,8.35,8.39,60.2,505.7,1,1,1,1
9077149,1,1,1,0.015,-0.100,0.200,0.000,3,1,1169,1363,0,0,-1,0,0.00,0.00,0.279,0.080,9.971,-0.183,-0.244,0.305,28.97,8.34,8.39,65.0,545.7,1,1,1,1
9087158,1,1,1,0.015,-0.100,0.200,0.000,3,1,1169,1363,0,0,-1,0,0.00,0.00,0.299,0.074,9.981,-0.122,-0.305,0.366,28.94,8.33,8.40,60.0,504.1,1,1,1,1
9097158,1,1,1,0.015,-0.100,0.200,0.000,3,1,1169,1363,0,0,-1,0,0.00,0.00,0.280,0.076,9.962,-0.183,-0.305,0.305,28.97,8.32,8.39,61.5,515.9,1,1,1,1
9107164,1,1,1,0.015,-0.100,0.200,0.000,3,1,1169,1363,0,0,-1,0,0.00,0.00,0.272,0.082,9.963,-0.183,-0.366,0.183,28.93,8.35,8.39,61.5,516.0,1,1,1,1
9117173,1,1,1,0.015,-0.100,0.200,0.000,3,1,1169,1363,0,0,-1,0,0.00,0.00,0.293,0.092,9.965,-0.122,-0.366,0.244,28.94,8.32,8.39,60.2,505.5,1,1,1,1
9127173,1,1,1,0.015,-0.100,0.200,0.000,3,1,1169,1363,0,0,-1,0,0.00,0.00,0.276,0.082,9.961,-0.122,-0.366,0.244,28.96,8.33,8.39,64.8,543.0,1,1,1,1
9137193,1,1,1,0.015,-0.100,0.200,0.000,3,1,1169,1363,0,0,-1,0,0.00,0.00,0.285,0.092,9.968,-0.244,-0.366,0.244,28.97,8.31,8.37,60.2,504.5,1,1,1,1
9147193,1,1,1,0.015,-0.100,0.200,0.000,3,1,1169,1363,0,0,-1,0,0.00,0.00,0.286,0.100,9.943,-0.183,-0.366,0.244,28.96,9.28,8.39,62.8,526.7,1,1,1,1
9157199,1,1,1,0.015,-0.100,0.200,0.000,3,1,1169,1362,0,-1,-1,-1,0.00,0.00,0.284,0.096,9.952,-0.122,-0.366,0.305,28.95,8.34,8.39,60.5,507.4,1,1,1,1
9167208,1,1,1,0.015,-0.100,0.200,0.000,3,1,1169,1363,0,1,-1,0,0.00,0.00,0.282,0.086,9.964,-0.183,-0.366,0.183,28.99,8.32,8.39,60.2,505.3,1,1,1,1
9177208,1,1,1,0.015,-0.100,0.200,0.000,3,1,1169,1363,0,0,-1,0,0.00,0.00,0.283,0.080,9.965,-0.061,-0.366,0.244,28.95,8.33,8.39,61.8,518.2,1,1,1,1
9187208,1,1,1,0.015,-0.100,0.200,0.000,3,1,1169,1363,0,0,-1,0,0.00,0.00,0.280,0.105,9.964,-0.183,-0.305,0.305,28.97,8.32,8.39,61.3,513.9,1,1,1,1
9197208,1,1,1,0.015,-0.100,0.200,0.000,3,1,1169,1363,0,0,-1,0,0.00,0.00,0.286,0.092,9.968,-0.122,-0.305,0.244,28.95,8.31,8.39,60.5,507.7,1,1,1,1
9207208,1,1,1,0.015,-0.100,0.200,0.000,3,1,1169,1363,0,0,-1,0,0.00,0.00,0.290,0.083,9.959,-0.122,-0.427,0.244,28.95,8.31,8.38,65.0,544.5,1,1,1,1
9217208,1,1,1,0.015,-0.100,0.200,0.000,3,1,1169,1363,0,0,-1,0,0.00,0.00,0.283,0.088,9.961,-0.183,-0.305,0.183,28.94,8.31,8.39,59.5,499.1,1,1,1,1
9227208,1,1,1,0.015,-0.100,0.200,0.000,3,1,1169,1363,0,0,-1,0,0.00,0.00,0.289,0.094,9.939,-0.122,-0.305,0.244,28.96,8.32,8.39,62.5,524.4,1,1,1,1
9237208,1,1,1,0.015,-0.100,0.200,0.000,3,1,1169,1363,0,0,-1,0,0.00,0.00,0.269,0.084,9.953,-0.122,-0.366,0.305,28.99,8.31,8.39,60.5,507.3,1,1,1,1
9247208,1,1,1,0.015,-0.100,0.200,0.000,3,1,1169,1363,0,0,-1,0,0.00,0.00,0.275,0.081,9.977,-0.122,-0.366,0.305,28.96,8.33,8.39,60.7,509.7,1,1,1,1
9257208,1,1,1,0.015,-0.100,0.200,0.000,3,1,1169,1363,0,0,-1,0,0.00,0.00,0.275,0.095,9.956,-0.305,-0.305,0.244,28.97,8.31,8.40,64.5,541.6,1,1,1,1
9267208,1,1,1,0.015,-0.100,0.200,0.000,3,1,1169,1363,0,0,-1,0,0.00,0.00,0.283,0.092,9.962,-0.183,-0.305,0.244,28.98,8.31,8.38,60.7,509.1,1,1,1,1
9277208,1,1,1,0.015,-0.100,0.200,0.000,3,1,1169,1363,0,0,-1,0,0.00,0.00,0.289,0.084,9.985,-0.183,-0.305,0.244,28.95,8.32,8.40,63.8,535.4,1,1,1,1
9287220,1,1,1,0.015,-0.100,0.200,0.000,3,1,1168,1363,1,0,0,0,0.29,0.00,0.278,0.084,9.967,-0.122,-0.427,0.305,28.96,8.33,8.38,60.0,502.9,1,1,1,1
9297223,1,1,1,0.015,-0.100,0.200,0.000,3,1,1169,1363,-1,0,-1,0,0.29,0.00,0.289,0.081,9.962,-0.061,-0.427,0.305,28.98,8.31,8.39,61.0,511.9,1,1,1,1
9307223,1,1,1,0.015,-0.100,0.200,0.000,3,1,1169,1363,0,0,-1,0,0.29,0.00,0.278,0.083,9.960,-0.061,-0.305,0.244,28.96,8.33,8.39,62.5,524.4,1,1,1,1
9317230,1,1,1,0.015,-0.100,0.200,0.000,3,1,1169,1363,0,0,-1,0,0.29,0.00,0.281,0.093,9.963,-0.244,-0.366,0.305,28.97,8.33,8.39,60.2,505.6,1,1,1,1
9327238,1,1,1,0.015,-0.100,0.200,0.000,3,1,1169,1363,0,0,-1,0,0.29,0.00,0.280,0.085,9.975,-0.244,-0.305,0.366,28.98,8.47,8.39,60.7,509.8,1,1,1,1
9337245,1,1,1,0.015,-0.100,0.200,0.000,3,1,1169,1363,0,0,-1,0,-0.29,0.00,0.280,0.101,9.946,-0.183,-0.244,0.305,29.00,8.33,8.39,64.0,537.0,1,1,1,1
9347253,1,1,1,0.015,-0.100,0.200,0.000,3,1,1169,1363,0,0,-1,0,-0.29,0.00,0.281,0.078,9.952,-0.183,-0.244,0.244,29.02,8.33,8.38,60.2,505.0,1,1,1,1
9357253,1,1,1,0.015,-0.100,0.200,0.000,3,1,1169,1363,0,0,-1,0,-0.29,0.00,0.267,0.089,9.979,-0.183,-0.366,0.244,28.93,8.33,8.39,63.8,534.8,1,1,1,1
9367253,1,1,1,0.015,-0.100,0.200,0.000,3,1,1169,1363,0,0,-1,0,-0.29,0.00,0.274,0.104,9.949,-0.183,-0.366,0.244,28.99,8.33,8.40,60.2,506.0,1,1,1,1
9377260,1,1,1,0.015,-0.100,0.200,0.000,3,1,1169,1363,0,0,-1,0,-0.29,0.00,0.284,0.078,9.934,-0.183,-0.366,0.244,28.98,8.35,8.39,61.3,514.0,1,1,1,1
9387269,1,1,1,0.015,-0.100,0.200,0.000,3,1,1169,1363,0,0,-1,0,0.00,0.00,0.284,0.080,9.974,-0.183,-0.244,0.183,28.98,8.31,8.38,63.0,528.1,1,1,1,1
9397269,1,1,1,0.015,-0.100,0.200,0.000,3,1,1169,1363,0,0,-1,0,0.00,0.00,0.256,0.099,9.962,-0.122,-0.244,0.244,28.98,8.31,8.37,60.5,506.5,1,1,1,1
9407275,1,1,1,0.015,-0.100,0.200,0.000,3,1,1169,1363,0,0,-1,0,0.00,0.00,0.290,0.080,9.969,-0.122,-0.244,0.244,28.94,8.30,8.39,64.5,540.9,1,1,1,1
9417284,1,1,1,0.015,-0.100,0.200,0.000,3,1,1169,1363,0,0,-1,0,0.00,0.00,0.290,0.083,9.960,-0.183,-0.366,0.244,28.98,8.34,8.39,60.0,503.4,1,1,1,1
9427290,1,1,1,0.015,-0.100,0.200,0.000,3,1,1169,1363,0,0,-1,0,0.00,0.00,0.256,0.105,9.954,-0.183,-0.244,0.183,28.96,8.50,8.39,61.8,518.0,1,1,1,1
9437291,1,1,1,0.015,-0.100,0.200,0.000,3,1,1169,1363,0,0,-1,0,0.00,0.00,0.272,0.098,9.969,-0.183,-0.305,0.183,28.98,8.25,8.39,61.8,517.9,1,1,1,1
9447305,1,1,1,0.015,-0.100,0.200,0.000,3,1,1169,1363,0,0,-1,0,0.00,0.00,0.293,0.098,9.951,-0.122,-0.427,0.244,28.94,8.31,8.38,60.5,507.2,1,1,1,1
9457314,1,1,1,0.015,-0.100,0.200,0.000,3,1,1169,1363,0,0,-1,0,0.00,0.00,0.291,0.079,9.966,-0.183,-0.366,0.244,28.99,8.31,8.39,61.0,511.9,1,1,1,1
9467314,1,1,1,0.015,-0.100,0.200,0.000,3,1,1169,1363,0,0,-1,0,0.00,0.00,0.287,0.073,9.960,-0.183,-0.366,0.244,29.01,8.31,8.39,62.8,526.7,1,1,1,1
9477314,1,1,1,0.015,-0.100,0.200,0.000,3,1,1169,1363,0,0,-1,0,0.00,0.00,0.285,0.090,9.951,-0.244,-0.366,0.244,28.95,8.32,8.38,60.5,507.1,1,1,1,1
9487321,1,1,1,0.015,-0.100,0.200,0.000,3,1,1169,1363,0,0,-1,0,0.00,0.00,0.275,0.086,9.965,-0.183,-0.366,0.305,29.00,8.31,8.40,64.8,543.7,1,1,1,1
9497321,1,1,1,0.015,-0.100,0.200,0.000,3,1,1169,1363,0,0,-1,0,0.00,0.00,0.282,0.101,9.966,-0.244,-0.305,0.305,28.95,8.34,8.38,60.2,505.1,1,1,1,1
9507329,1,1,1,0.015,-0.100,0.200,0.000,3,1,1169,1363,0,0,-1,0,0.00,0.00,0.286,0.090,9.967,-0.183,-0.366,0.305,28.94,8.31,8.38,61.3,513.5,1,1,1,1
9517329,1,1,1,0.015,-0.100,0.200,0.000,3,1,1169,1363,0,0,-1,0,0.00,0.00,0.282,0.089,9.974,-0.061,-0.244,0.366,28.97,8.31,8.40,61.5,516.5,1,1,1,1
9527336,1,1,1,0.015,-0.100,0.200,0.000,3,1,1169,1363,0,0,-1,0,0.00,0.00,0.283,0.096,9.985,-0.183,-0.244,0.244,28.99,8.33,8.40,60.0,504.1,1,1,1,1
9537345,1,1,1,0.015,-0.100,0.200,0.000,3,1,1169,1363,0,0,-1,0,0.00,0.00,0.283,0.075,9.969,-0.244,-0.244,0.244,28.96,8.34,8.39,64.8,543.3,1,1,1,1
9547360,1,1,1,0.015,-0.100,0.200,0.000,3,1,1169,1363,0,0,-1,0,0.00,0.00,0.287,0.068,9.946,-0.244,-0.427,0.244,28.95,8.31,8.39,60.2,505.4,1,1,1,1
9557360,1,1,1,0.015,-0.100,0.200,0.000,3,1,1169,1363,0,0,-1,0,0.00,0.00,0.289,0.078,9.957,-0.183,-0.488,0.244,28.93,8.31,8.40,62.2,522.8,1,1,1,1
9567366,1,1,1,0.015,-0.100,0.200,0.000,3,1,1169,1363,0,0,-1,0,0.00,0.00,0.289,0.093,9.965,-0.183,-0.366,0.122,28.96,8.31,8.39,61.0,511.9,1,1,1,1
9577370,1,1,1,0.015,-0.100,0.200,0.000,3,1,1169,1363,0,0,-1,0,0.00,0.00,0.286,0.099,9.957,-0.183,-0.366,0.244,28.97,8.31,8.38,60.2,504.9,1,1,1,1
9587382,1,1,1,0.015,-0.100,0.200,0.000,3,1,1169,1363,0,0,-1,0,0.00,0.00,0.262,0.081,9.972,-0.183,-0.305,0.305,28.95,8.32,8.39,65.0,545.1,1,1,1,1
9597397,1,1,1,0.015,-0.100,0.200,0.000,3,1,1169,1363,0,0,-1,0,0.00,0.00,0.280,0.074,9.988,-0.244,-0.305,0.305,28.95,8.34,8.39,62.2,522.6,1,1,1,1
9607397,1,1,1,0.015,-0.100,0.200,0.000,3,1,1169,1363,0,0,-1,0,0.00,0.00,0.294,0.094,9.944,-0.183,-0.366,0.244,28.99,8.31,8.39,60.5,507.4,1,1,1,1
9617405,1,1,1,0.015,-0.100,0.200,0.000,3,1,1169,1363,0,0,-1,0,0.00,0.00,0.286,0.093,9.965,-0.183,-0.366,0.305,28.96,8.33,8.39,65.0,545.6,1,1,1,1
9627412,1,1,1,0.015,-0.100,0.200,0.000,3,1,1169,1363,0,0,-1,0,0.00,0.00,0.269,0.084,9.983,-0.183,-0.366,0.305,28.95,8.33,8.39,60.5,507.4,1,1,1,1
9637412,1,1,1,0.015,-0.100,0.200,0.000,3,1,1169,1363,0,0,-1,0,0.00,0.00,0.271,0.095,9.957,-0.244,-0.305,0.244,28.91,8.31,8.39,62.8,526.2,1,1,1,1
9647420,1,1,1,0.015,-0.100,0.200,0.000,3,1,1169,1363,0,0,-1,0,0.00,0.00,0.282,0.099,9.963,-0.183,-0.366,0.305,28.94,8.31,8.39,60.7,509.5,1,1,1,1
9657427,1,1,1,0.015,-0.100,0.200,0.000,3,1,1169,1363,0,0,-1,0,0.00,0.00,0.272,0.076,9.959,-0.122,-0.366,0.305,29.01,8.33,8.39,62.8,526.6,1,1,1,1
