timestamp_us,test_id,phase,run_id,cmd_v,cmd_omega,pwm_l,pwm_r,mode_l,mode_r,raw_angle_l,raw_angle_r,delta_angle_l,delta_angle_r,steps_l,steps_r,rpm_l,rpm_r,accel_x,accel_y,accel_z,gyro_x,gyro_y,gyro_z,imu_temp,battery_voltage,driver_voltage,driver_current,driver_power,encoder_valid_l,encoder_valid_r,imu_valid,ina_valid
1323299,1,0,1,0.000,0.000,0.000,0.000,0,0,67,2010,0,0,0,0,0.00,0.00,-0.903,-0.366,9.623,-0.427,-0.732,0.305,28.14,7.67,7.74,1.0,7.7,1,1,1,1
1333301,1,0,1,0.000,0.000,0.000,0.000,0,0,67,2010,0,0,0,0,0.00,0.00,-0.927,-0.384,9.682,-0.366,-0.732,0.305,28.14,7.67,7.74,1.2,9.7,1,1,1,1
1343301,1,0,1,0.000,0.000,0.000,0.000,0,0,67,2010,0,0,0,0,0.00,0.00,-0.897,-0.372,9.661,-0.427,-0.732,0.183,28.10,7.65,7.74,1.2,9.7,1,1,1,1
1353301,1,0,1,0.000,0.000,0.000,0.000,0,0,67,2010,0,0,0,0,0.00,0.00,-0.878,-0.384,9.659,-0.427,-0.732,0.183,28.13,7.65,7.73,1.2,9.7,1,1,1,1
1363301,1,0,1,0.000,0.000,0.000,0.000,0,0,67,2010,0,0,0,0,0.00,0.00,-0.885,-0.379,9.656,-0.366,-0.793,0.244,28.13,7.67,7.73,1.2,9.7,1,1,1,1
1373308,1,0,1,0.000,0.000,0.000,0.000,0,0,67,2010,0,0,0,0,0.00,0.00,-0.924,-0.373,9.661,-0.305,-0.732,0.244,28.15,7.67,7.73,1.2,9.7,1,1,1,1
1383316,1,0,1,0.000,0.000,0.000,0.000,0,0,67,2010,0,0,0,0,0.00,0.00,-0.916,-0.363,9.646,-0.366,-0.610,0.244,28.15,7.65,7.73,1.2,9.7,1,1,1,1
1393316,1,0,1,0.000,0.000,0.000,0.000,0,0,67,2010,0,0,0,0,0.00,0.00,-0.900,-0.368,9.658,-0.366,-0.610,0.244,28.14,7.67,7.73,1.0,7.7,1,1,1,1
1403323,1,0,1,0.000,0.000,0.000,0.000,0,0,67,2010,0,0,0,0,0.00,0.00,-0.886,-0.363,9.642,-0.366,-0.671,0.122,28.12,7.67,7.73,1.2,9.7,1,1,1,1
1413323,1,0,1,0.000,0.000,0.000,0.000,0,0,67,2010,0,0,0,0,0.00,0.00,-0.883,-0.361,9.651,-0.305,-0.732,0.183,28.17,7.68,7.73,1.0,7.7,1,1,1,1
1423331,1,0,1,0.000,0.000,0.000,0.000,0,0,67,2010,0,0,0,0,0.00,0.00,-0.891,-0.361,9.642,-0.244,-0.793,0.244,28.16,7.67,7.73,1.0,7.7,1,1,1,1
1433331,1,0,1,0.000,0.000,0.000,0.000,0,0,67,2010,0,0,0,0,0.00,0.00,-0.906,-0.376,9.623,-0.305,-0.732,0.183,28.18,7.67,7.73,1.2,9.7,1,1,1,1
1443338,1,0,1,0.000,0.000,0.000,0.000,0,0,67,2010,0,0,0,0,0.00,0.00,-0.906,-0.376,9.623,-0.305,-0.732,0.183,28.19,7.64,7.73,1.2,9.7,1,1,1,1
1453338,1,0,1,0.000,0.000,0.000,0.000,0,0,67,2010,0,0,0,0,0.00,0.00,-0.914,-0.378,9.658,-0.366,-0.671,0.244,28.15,7.65,7.73,1.2,9.7,1,1,1,1
1463346,1,0,1,0.000,0.000,0.000,0.000,0,0,68,2010,-1,0,-1,0,0.00,0.00,-0.923,-0.378,9.635,-0.305,-0.854,0.244,28.11,7.67,7.73,1.0,7.7,1,1,1,1
1473353,1,0,1,0.000,0.000,0.000,0.000,0,0,68,2010,0,0,-1,0,-0.29,0.00,-0.934,-0.380,9.643,-0.305,-0.793,0.305,28.13,7.67,7.73,1.0,7.7,1,1,1,1
1483362,1,0,1,0.000,0.000,0.000,0.000,0,0,68,2010,0,0,-1,0,-0.29,0.00,-0.949,-0.353,9.667,-0.366,-0.610,0.244,28.14,7.65,7.73,1.2,9.7,1,1,1,1
1493362,1,0,1,0.000,0.000,0.000,0.000,0,0,67,2010,1,0,0,0,-0.29,0.00,-0.909,-0.393,9.641,-0.366,-0.671,0.061,28.18,7.65,7.73,1.2,9.7,1,1,1,1
1503368,1,0,1,0.000,0.000,0.000,0.000,0,0,67,2010,0,0,0,0,-0.29,0.00,-0.840,-0.379,9.635,-0.366,-0.732,0.183,28.18,7.65,7.73,1.2,9.7,1,1,1,1
1513377,1,0,1,0.000,0.000,0.000,0.000,0,0,67,2010,0,0,0,0,-0.29,0.00,-0.838,-0.357,9.648,-0.366,-0.671,0.305,28.13,7.65,7.73,1.0,7.7,1,1,1,1
1523384,1,0,1,0.000,0.000,0.000,0.000,0,0,67,2010,0,0,0,0,0.29,0.00,-0.919,-0.385,9.671,-0.366,-0.732,0.122,28.14,7.67,7.74,1.2,9.7,1,1,1,1
1533384,1,0,1,0.000,0.000,0.000,0.000,0,0,68,2010,-1,0,-1,0,0.29,0.00,-0.957,-0.374,9.659,-0.244,-0.732,0.122,28.12,7.67,7.73,1.2,9.7,1,1,1,1
1543384,1,0,1,0.000,0.000,0.000,0.000,0,0,68,2010,0,0,-1,0,0.29,0.00,-0.936,-0.389,9.650,-0.366,-0.549,0.244,28.14,7.67,7.73,1.2,9.7,1,1,1,1
1553384,1,0,1,0.000,0.000,0.000,0.000,0,0,68,2010,0,0,-1,0,0.29,0.00,-0.840,-0.393,9.658,-0.488,-0.732,0.244,28.13,7.67,7.73,1.0,7.7,1,1,1,1
1563384,1,0,1,0.000,0.000,0.000,0.000,0,0,67,2010,1,0,0,0,0.29,0.00,-0.859,-0.355,9.648,-0.366,-0.732,0.183,28.13,7.65,7.73,1.2,9.7,1,1,1,1
1573392,1,0,1,0.000,0.000,0.000,0.000,0,0,67,2010,0,0,0,0,0.00,0.00,-0.895,-0.375,9.659,-0.305,-0.671,0.244,28.17,7.67,7.73,1.2,9.7,1,1,1,1
1583399,1,0,1,0.000,0.000,0.000,0.000,0,0,67,2010,0,0,0,0,0.00,0.00,-0.918,-0.378,9.654,-0.427,-0.732,0.244,28.15,7.65,7.73,1.2,9.7,1,1,1,1
1593407,1,0,1,0.000,0.000,0.000,0.000,0,0,67,2010,0,0,0,0,0.00,0.00,-0.912,-0.353,9.664,-0.366,-0.732,0.183,28.15,7.67,7.73,1.2,9.7,1,1,1,1
1603407,1,0,1,0.000,0.000,0.000,0.000,0,0,67,2010,0,0,0,0,0.00,0.00,-0.888,-0.353,9.662,-0.427,-0.793,0.244,28.16,7.67,7.73,1.2,9.7,1,1,1,1
1613414,1,0,1,0.000,0.000,0.000,0.000,0,0,68,2010,-1,0,-1,0,0.00,0.00,-0.880,-0.370,9.653,-0.427,-0.610,0.244,28.15,7.65,7.73,1.2,9.7,1,1,1,1
1623426,1,0,1,0.000,0.000,0.000,0.000,0,0,68,2010,0,0,-1,0,-0.29,0.00,-0.895,-0.378,9.637,-0.427,-0.671,0.122,28.16,7.64,7.72,1.2,9.6,1,1,1,1
1633429,1,0,1,0.000,0.000,0.000,0.000,0,0,67,2010,1,0,0,0,-0.29,0.00,-0.939,-0.376,9.667,-0.305,-0.671,0.244,28.16,7.67,7.74,1.2,9.7,1,1,1,1
1643437,1,0,1,0.000,0.000,0.000,0.000,0,0,67,2010,0,0,0,0,-0.29,0.00,-0.917,-0.373,9.675,-0.366,-0.732,0.183,28.15,7.65,7.73,1.2,9.7,1,1,1,1
1653449,1,0,1,0.000,0.000,0.000,0.000,0,0,67,2010,0,0,0,0,-0.29,0.00,-0.871,-0.369,9.655,-0.549,-0.671,0.183,28.13,7.65,7.73,1.2,9.7,1,1,1,1
1663457,1,0,1,0.000,0.000,0.000,0.000,0,0,68,2010,-1,0,-1,0,-0.29,0.00,-0.881,-0.385,9.662,-0.366,-0.671,0.183,28.22,7.67,7.73,1.2,9.7,1,1,1,1
1673464,1,0,1,0.000,0.000,0.000,0.000,0,0,67,2010,1,0,0,0,0.29,0.00,-0.920,-0.377,9.671,-0.366,-0.610,0.122,28.17,7.63,7.73,1.2,9.7,1,1,1,1
1683473,1,0,1,0.000,0.000,0.000,0.000,0,0,68,2010,-1,0,-1,0,0.29,0.00,-0.922,-0.366,9.654,-0.366,-0.671,0.122,28.15,7.64,7.73,1.2,9.7,1,1,1,1
1693479,1,0,1,0.000,0.000,0.000,0.000,0,0,68,2010,0,0,-1,0,0.29,0.00,-0.886,-0.373,9.664,-0.366,-0.732,0.183,28.17,7.64,7.73,1.0,7.7,1,1,1,1
1703479,1,0,1,0.000,0.000,0.000,0.000,0,0,67,2010,1,0,0,0,0.29,0.00,-0.870,-0.382,9.674,-0.305,-0.732,0.244,28.12,7.67,7.73,1.0,7.7,1,1,1,1
1713479,1,0,1,0.000,0.000,0.000,0.000,0,0,67,2010,0,0,0,0,0.29,0.00,-0.892,-0.376,9.666,-0.366,-0.671,0.183,28.17,7.67,7.74,1.2,9.7,1,1,1,1
1723488,1,0,1,0.000,0.000,0.000,0.000,0,0,67,2010,0,0,0,0,0.00,0.00,-0.894,-0.364,9.661,-0.366,-0.671,0.183,28.17,7.67,7.73,1.2,9.7,1,1,1,1
1733488,1,0,1,0.000,0.000,0.000,0.000,0,0,67,2010,0,0,0,0,0.00,0.00,-0.925,-0.378,9.668,-0.305,-0.732,0.122,28.19,7.64,7.73,1.0,7.7,1,1,1,1
1743488,1,0,1,0.000,0.000,0.000,0.000,0,0,67,2010,0,0,0,0,0.00,0.00,-0.915,-0.385,9.667,-0.305,-0.732,0.183,28.12,7.67,7.73,1.2,9.7,1,1,1,1
1753488,1,0,1,0.000,0.000,0.000,0.000,0,0,68,2010,-1,0,-1,0,0.00,0.00,-0.898,-0.375,9.651,-0.366,-0.671,0.183,28.18,7.65,7.74,1.2,9.7,1,1,1,1
1763488,1,0,1,0.000,0.000,0.000,0.000,0,0,68,2010,0,0,-1,0,0.00,0.00,-0.894,-0.368,9.649,-0.366,-0.610,0.183,28.18,7.67,7.73,1.2,9.7,1,1,1,1
1773495,1,0,1,0.000,0.000,0.000,0.000,0,0,67,2010,1,0,0,0,0.00,0.00,-0.913,-0.363,9.646,-0.366,-0.549,0.183,28.18,7.64,7.73,1.2,9.7,1,1,1,1
1783503,1,0,1,0.000,0.000,0.000,0.000,0,0,67,2010,0,0,0,0,0.00,0.00,-0.916,-0.378,9.622,-0.305,-0.610,0.183,28.17,7.65,7.73,1.2,9.7,1,1,1,1
1793503,1,0,1,0.000,0.000,0.000,0.000,0,0,67,2010,0,0,0,0,0.00,0.00,-0.898,-0.378,9.654,-0.427,-0.732,0.183,28.15,7.67,7.73,1.2,9.7,1,1,1,1
1803503,1,0,1,0.000,0.000,0.000,0.000,0,0,67,2010,0,0,0,0,0.00,0.00,-0.896,-0.375,9.667,-0.305,-0.671,0.244,28.18,7.67,7.74,1.0,7.7,1,1,1,1
1813509,1,0,1,0.000,0.000,0.000,0.000,0,0,67,2010,0,0,0,0,0.00,0.00,-0.904,-0.373,9.665,-0.305,-0.732,0.183,28.13,7.67,7.73,1.0,7.7,1,1,1,1
1823510,1,0,1,0.000,0.000,0.000,0.000,0,0,67,2010,0,0,0,0,0.00,0.00,-0.879,-0.378,9.653,-0.305,-0.671,0.122,28.13,7.65,7.73,1.0,7.7,1,1,1,1
1833518,1,0,1,0.000,0.000,0.000,0.000,0,0,68,2010,-1,0,-1,0,0.00,0.00,-0.888,-0.373,9.670,-0.305,-0.671,0.122,28.13,7.64,7.73,1.2,9.7,1,1,1,1
1843525,1,0,1,0.000,0.000,0.000,0.000,0,0,67,2010,1,0,0,0,0.00,0.00,-0.901,-0.369,9.647,-0.366,-0.671,0.122,28.13,7.63,7.73,1.2,9.7,1,1,1,1
1853533,1,0,1,0.000,0.000,0.000,0.000,0,0,67,2010,0,0,0,0,0.00,0.00,-0.895,-0.371,9.656,-0.366,-0.671,0.183,28.17,7.64,7.73,1.0,7.7,1,1,1,1
1863533,1,0,1,0.000,0.000,0.000,0.000,0,0,68,2010,-1,0,-1,0,0.00,0.00,-0.904,-0.371,9.644,-0.366,-0.610,0.244,28.17,7.65,7.73,1.0,7.7,1,1,1,1
1873533,1,0,1,0.000,0.000,0.000,0.000,0,0,67,2010,1,0,0,0,0.00,0.00,-0.921,-0.376,9.638,-0.427,-0.671,0.244,28.18,7.65,7.73,1.2,9.7,1,1,1,1
1883540,1,0,1,0.000,0.000,0.000,0.000,0,0,67,2010,0,0,0,0,0.00,0.00,-0.924,-0.364,9.659,-0.366,-0.732,0.183,28.18,7.64,7.73,1.2,9.7,1,1,1,1
1893540,1,0,1,0.000,0.000,0.000,0.000,0,0,67,2010,0,0,0,0,0.00,0.00,-0.912,-0.373,9.647,-0.305,-0.671,0.122,28.15,7.67,7.74,1.2,9.7,1,1,1,1
1903548,1,0,1,0.000,0.000,0.000,0.000,0,0,68,2010,-1,0,-1,0,0.00,0.00,-0.910,-0.381,9.677,-0.366,-0.671,0.183,28.15,7.65,7.73,1.2,9.7,1,1,1,1
1913559,1,0,1,0.000,0.000,0.000,0.000,0,0,67,2010,1,0,0,0,0.00,0.00,-0.908,-0.364,9.678,-0.427,-0.732,0.183,28.15,7.67,7.72,1.0,7.7,1,1,1,1
1923564,1,0,1,0.000,0.000,0.000,0.000,0,0,67,2010,0,0,0,0,0.00,0.00,-0.898,-0.370,9.652,-0.305,-0.671,0.122,28.15,7.65,7.73,1.0,7.7,1,1,1,1
1933570,1,0,1,0.000,0.000,0.000,0.000,0,0,68,2010,-1,0,-1,0,0.00,0.00,-0.902,-0.381,9.664,-0.305,-0.671,0.061,28.15,7.63,7.73,1.2,9.7,1,1,1,1
1943579,1,0,1,0.000,0.000,0.000,0.000,0,0,67,2010,1,0,0,0,0.00,0.00,-0.888,-0.379,9.656,-0.366,-0.671,0.183,28.15,7.67,7.73,1.2,9.7,1,1,1,1
1953579,1,0,1,0.000,0.000,0.000,0.000,0,0,68,2010,-1,0,-1,0,0.00,0.00,-0.884,-0.359,9.670,-0.305,-0.732,0.183,28.16,7.62,7.73,1.0,7.7,1,1,1,1
1963579,1,0,1,0.000,0.000,0.000,0.000,0,0,68,2010,0,0,-1,0,0.00,0.00,-0.883,-0.376,9.652,-0.305,-0.671,0.183,28.12,7.67,7.73,1.0,7.7,1,1,1,1
1973586,1,0,1,0.000,0.000,0.000,0.000,0,0,68,2010,0,0,-1,0,-0.29,0.00,-0.903,-0.365,9.659,-0.366,-0.732,0.244,28.15,7.67,7.73,1.2,9.7,1,1,1,1
1983600,1,0,1,0.000,0.000,0.000,0.000,0,0,67,2010,1,0,0,0,-0.29,0.00,-0.901,-0.373,9.647,-0.488,-0.671,0.183,28.15,7.65,7.74,1.2,9.7,1,1,1,1
1993609,1,0,1,0.000,0.000,0.000,0.000,0,0,67,2010,0,0,0,0,-0.29,0.00,-0.916,-0.365,9.646,-0.366,-0.732,0.122,28.19,7.67,7.73,1.2,9.7,1,1,1,1
2003616,1,0,1,0.000,0.000,0.000,0.000,0,0,68,2010,-1,0,-1,0,-0.29,0.00,-0.903,-0.363,9.642,-0.366,-0.671,0.122,28.17,7.67,7.74,1.2,9.7,1,1,1,1
2013616,1,0,1,0.000,0.000,0.000,0.000,0,0,68,2010,0,0,-1,0,-0.29,0.00,-0.900,-0.372,9.646,-0.305,-0.671,0.183,28.17,7.65,7.73,1.2,9.7,1,1,1,1
2023624,1,0,1,0.000,0.000,0.000,0.000,0,0,68,2010,0,0,-1,0,0.00,0.00,-0.906,-0.365,9.646,-0.244,-0.732,0.183,28.16,7.65,7.73,1.2,9.7,1,1,1,1
2033631,1,0,1,0.000,0.000,0.000,0.000,0,0,67,2010,1,0,0,0,0.00,0.00,-0.919,-0.381,9.636,-0.366,-0.610,0.183,28.18,7.67,7.73,1.2,9.7,1,1,1,1
2043631,1,0,1,0.000,0.000,0.000,0.000,0,0,68,2010,-1,0,-1,0,0.00,0.00,-0.907,-0.362,9.658,-0.366,-0.671,0.183,28.17,7.69,7.73,1.2,9.7,1,1,1,1
2053631,1,0,1,0.000,0.000,0.000,0.000,0,0,67,2010,1,0,0,0,0.00,0.00,-0.891,-0.381,9.638,-0.366,-0.732,0.183,28.17,7.67,7.73,1.2,9.7,1,1,1,1
2063631,1,0,1,0.000,0.000,0.000,0.000,0,0,67,2010,0,0,0,0,0.00,0.00,-0.916,-0.384,9.647,-0.427,-0.671,0.061,28.18,7.67,7.73,1.0,7.7,1,1,1,1
2073631,1,0,1,0.000,0.000,0.000,0.000,0,0,67,2010,0,0,0,0,0.29,0.00,-0.913,-0.379,9.653,-0.366,-0.732,0.122,28.20,7.67,7.73,1.2,9.7,1,1,1,1
2083631,1,0,1,0.000,0.000,0.000,0.000,0,0,67,2010,0,0,0,0,0.29,0.00,-0.908,-0.377,9.655,-0.366,-0.671,0.122,28.19,7.67,7.73,1.2,9.7,1,1,1,1
2093631,1,0,1,0.000,0.000,0.000,0.000,0,0,67,2010,0,0,0,0,0.29,0.00,-0.885,-0.372,9.656,-0.366,-0.732,0.183,28.19,7.64,7.74,1.5,11.6,1,1,1,1
2103639,1,0,1,0.000,0.000,0.000,0.000,0,0,68,2010,-1,0,-1,0,0.29,0.00,-0.898,-0.377,9.639,-0.183,-0.732,0.183,28.14,7.65,7.74,1.2,9.7,1,1,1,1
2113639,1,0,1,0.000,0.000,0.000,0.000,0,0,68,2010,0,0,-1,0,0.29,0.00,-0.892,-0.383,9.673,-0.366,-0.732,0.183,28.20,7.67,7.74,1.0,7.7,1,1,1,1
2123639,1,0,1,0.000,0.000,0.000,0.000,0,0,67,2010,1,0,0,0,0.00,0.00,-0.894,-0.368,9.685,-0.427,-0.610,0.122,28.21,7.65,7.73,1.0,7.7,1,1,1,1
2133639,1,0,1,0.000,0.000,0.000,0.000,0,0,67,2010,0,0,0,0,0.00,0.00,-0.904,-0.370,9.668,-0.488,-0.610,0.183,28.18,7.67,7.74,1.2,9.7,1,1,1,1
2143646,1,0,1,0.000,0.000,0.000,0.000,0,0,68,2010,-1,0,-1,0,0.00,0.00,-0.896,-0.362,9.631,-0.427,-0.732,0.183,28.14,7.64,7.74,1.2,9.7,1,1,1,1
2153646,1,0,1,0.000,0.000,0.000,0.000,0,0,67,2010,1,0,0,0,0.00,0.00,-0.904,-0.379,9.649,-0.366,-0.671,0.183,28.17,7.67,7.73,1.2,9.7,1,1,1,1
2163655,1,0,1,0.000,0.000,0.000,0.000,0,0,67,2010,0,0,0,0,0.00,0.00,-0.886,-0.367,9.632,-0.305,-0.732,0.183,28.18,7.64,7.73,1.5,11.6,1,1,1,1
2173655,1,0,1,0.000,0.000,0.000,0.000,0,0,67,2010,0,0,0,0,0.00,0.00,-0.889,-0.376,9.641,-0.366,-0.732,0.183,28.16,7.67,7.74,1.0,7.7,1,1,1,1
2183661,1,0,1,0.000,0.000,0.000,0.000,0,0,68,2010,-1,0,-1,0,0.00,0.00,-0.902,-0.377,9.650,-0.366,-0.732,0.183,28.17,7.64,7.74,1.2,9.7,1,1,1,1
2193661,1,0,1,0.000,0.000,0.000,0.000,0,0,68,2010,0,0,-1,0,0.00,0.00,-0.897,-0.361,9.642,-0.366,-0.610,0.122,28.17,7.64,7.73,1.2,9.7,1,1,1,1
2203661,1,0,1,0.000,0.000,0.000,0.000,0,0,68,2010,0,0,-1,0,0.00,0.00,-0.892,-0.365,9.644,-0.366,-0.671,0.244,28.20,7.65,7.72,1.0,7.7,1,1,1,1
2213661,1,0,1,0.000,0.000,0.000,0.000,0,0,67,2010,1,0,0,0,0.00,0.00,-0.903,-0.384,9.654,-0.305,-0.671,0.183,28.15,7.65,7.73,1.2,9.7,1,1,1,1
2223662,1,0,1,0.000,0.000,0.000,0.000,0,0,67,2010,0,0,0,0,0.00,0.00,-0.909,-0.362,9.644,-0.305,-0.610,0.122,28.16,7.67,7.73,1.2,9.7,1,1,1,1
2233670,1,0,1,0.000,0.000,0.000,0.000,0,0,67,2010,0,0,0,0,0.00,0.00,-0.910,-0.368,9.650,-0.366,-0.671,0.183,28.18,7.65,7.73,1.0,7.7,1,1,1,1
2243670,1,0,1,0.000,0.000,0.000,0.000,0,0,67,2010,0,0,0,0,0.00,0.00,-0.901,-0.351,9.662,-0.305,-0.732,0.183,28.16,7.64,7.73,1.2,9.7,1,1,1,1
2253676,1,0,1,0.000,0.000,0.000,0.000,0,0,68,2010,-1,0,-1,0,0.00,0.00,-0.894,-0.354,9.658,-0.305,-0.732,0.244,28.13,7.68,7.73,1.2,9.7,1,1,1,1
2263685,1,0,1,0.000,0.000,0.000,0.000,0,0,68,2010,0,0,-1,0,0.00,0.00,-0.907,-0.366,9.655,-0.427,-0.610,0.183,28.12,7.65,7.73,1.0,7.7,1,1,1,1
2273692,1,0,1,0.000,0.000,0.000,0.000,0,0,67,2010,1,0,0,0,0.00,0.00,-0.912,-0.374,9.649,-0.305,-0.671,0.122,28.22,7.67,7.73,1.0,7.7,1,1,1,1
2283707,1,0,1,0.000,0.000,0.000,0.000,0,0,67,2010,0,0,0,0,0.00,0.00,-0.900,-0.366,9.653,-0.305,-0.732,0.183,28.24,7.67,7.73,1.2,9.7,1,1,1,1
2293715,1,0,1,0.000,0.000,0.000,0.000,0,0,68,2010,-1,0,-1,0,0.00,0.00,-0.892,-0.379,9.663,-0.366,-0.671,0.183,28.15,7.64,7.73,1.2,9.7,1,1,1,1
2303722,1,0,1,0.000,0.000,0.000,0.000,0,0,67,2010,1,0,0,0,0.00,0.00,-0.895,-0.378,9.685,-0.366,-0.610,0.183,28.18,7.65,7.73,1.2,9.7,1,1,1,1
2313731,1,0,1,0.000,0.000,0.000,0.000,0,0,68,2010,-1,0,-1,0,0.00,0.00,-0.907,-0.358,9.643,-0.427,-0.671,0.244,28.18,7.64,7.73,1.2,9.7,1,1,1,1
2323734,1,0,1,0.000,0.000,0.000,0.000,0,0,67,2010,1,0,0,0,0.00,0.00,-0.902,-0.357,9.654,-0.427,-0.732,0.244,28.16,7.63,7.72,1.2,9.6,1,1,1,1
2333746,1,0,1,0.000,0.000,0.000,0.000,0,0,67,2010,0,0,0,0,0.00,0.00,-0.884,-0.381,9.640,-0.366,-0.671,0.183,28.16,7.64,7.73,1.2,9.7,1,1,1,1
2343746,1,0,1,0.000,0.000,0.000,0.000,0,0,67,2010,0,0,0,0,0.00,0.00,-0.907,-0.371,9.650,-0.366,-0.671,0.122,28.19,7.64,7.73,1.2,9.7,1,1,1,1
2353752,1,0,1,0.000,0.000,0.000,0.000,0,0,67,2010,0,0,0,0,0.00,0.00,-0.899,-0.359,9.636,-0.366,-0.610,0.061,28.17,7.67,7.73,1.0,7.7,1,1,1,1
2363752,1,0,1,0.000,0.000,0.000,0.000,0,0,68,2010,-1,0,-1,0,0.00,0.00,-0.900,-0.383,9.648,-0.305,-0.671,0.183,28.16,7.63,7.74,1.2,9.7,1,1,1,1
2373761,1,0,1,0.000,0.000,0.000,0.000,0,0,68,2010,0,0,-1,0,-0.29,0.00,-0.887,-0.378,9.667,-0.366,-0.671,0.183,28.19,7.67,7.73,1.2,9.7,1,1,1,1
2383767,1,0,1,0.000,0.000,0.000,0.000,0,0,68,2010,0,0,-1,0,-0.29,0.00,-0.886,-0.376,9.645,-0.427,-0.732,0.122,28.14,7.67,7.73,1.0,7.7,1,1,1,1
2393767,1,0,1,0.000,0.000,0.000,0.000,0,0,68,2010,0,0,-1,0,-0.29,0.00,-0.886,-0.376,9.645,-0.427,-0.732,0.122,28.22,7.67,7.73,1.0,7.7,1,1,1,1
2403767,1,0,1,0.000,0.000,0.000,0.000,0,0,67,2010,1,0,0,0,-0.29,0.00,-0.911,-0.376,9.652,-0.427,-0.732,0.183,28.18,7.65,7.73,1.2,9.7,1,1,1,1
2413767,1,0,1,0.000,0.000,0.000,0.000,0,0,67,2010,0,0,0,0,-0.29,0.00,-0.899,-0.373,9.682,-0.366,-0.671,0.183,28.18,7.67,7.74,1.2,9.7,1,1,1,1
2423776,1,0,1,0.000,0.000,0.000,0.000,0,0,67,2010,0,0,0,0,0.29,0.00,-0.904,-0.368,9.651,-0.427,-0.671,0.183,28.14,7.67,7.73,1.2,9.7,1,1,1,1
2433776,1,0,1,0.000,0.000,0.000,0.000,0,0,67,2010,0,0,0,0,0.29,0.00,-0.900,-0.391,9.652,-0.366,-0.671,0.122,28.22,7.67,7.73,1.2,9.7,1,1,1,1
2443783,1,0,1,0.000,0.000,0.000,0.000,0,0,67,2010,0,0,0,0,0.29,0.00,-0.899,-0.357,9.660,-0.305,-0.732,0.183,28.14,7.67,7.73,1.2,9.7,1,1,1,1
2453783,1,0,1,0.000,0.000,0.000,0.000,0,0,68,2010,-1,0,-1,0,0.29,0.00,-0.879,-0.358,9.661,-0.305,-0.793,0.183,28.17,7.65,7.74,1.2,9.7,1,1,1,1
2463791,1,0,1,0.000,0.000,0.000,0.000,0,0,68,2010,0,0,-1,0,0.29,0.00,-0.882,-0.363,9.661,-0.305,-0.671,0.183,28.17,7.63,7.73,1.0,7.7,1,1,1,1
2473791,1,0,1,0.000,0.000,0.000,0.000,0,0,67,2010,1,0,0,0,0.00,0.00,-0.895,-0.374,9.649,-0.366,-0.671,0.244,28.12,7.64,7.73,1.2,9.7,1,1,1,1
2483791,1,0,1,0.000,0.000,0.000,0.000,0,0,67,2010,0,0,0,0,0.00,0.00,-0.904,-0.353,9.647,-0.244,-0.610,0.183,28.17,7.65,7.73,1.2,9.7,1,1,1,1
2493798,1,0,1,0.000,0.000,0.000,0.000,0,0,68,2010,-1,0,-1,0,0.00,0.00,-0.911,-0.384,9.644,-0.366,-0.671,0.183,28.12,7.65,7.73,1.0,7.7,1,1,1,1
2503798,1,0,1,0.000,0.000,0.000,0.000,0,0,67,2010,1,0,0,0,0.00,0.00,-0.909,-0.376,9.652,-0.305,-0.549,0.183,28.17,7.67,7.74,1.2,9.7,1,1,1,1
2513806,1,0,1,0.000,0.000,0.000,0.000,0,0,67,2010,0,0,0,0,0.00,0.00,-0.898,-0.360,9.651,-0.366,-0.610,0.183,28.18,7.67,7.73,1.2,9.7,1,1,1,1
2523813,1,0,1,0.000,0.000,0.000,0.000,0,0,67,2010,0,0,0,0,0.00,0.00,-0.896,-0.363,9.637,-0.305,-0.671,0.183,28.20,7.67,7.73,1.5,11.6,1,1,1,1
2533813,1,0,1,0.000,0.000,0.000,0.000,0,0,67,2010,0,0,0,0,0.00,0.00,-0.902,-0.375,9.636,-0.366,-0.671,0.183,28.20,7.67,7.73,1.0,7.7,1,1,1,1
2543822,1,0,1,0.000,0.000,0.000,0.000,0,0,68,2010,-1,0,-1,0,0.00,0.00,-0.918,-0.365,9.652,-0.366,-0.671,0.183,28.13,7.67,7.73,1.0,7.7,1,1,1,1
2553822,1,0,1,0.000,0.000,0.000,0.000,0,0,67,2010,1,0,0,0,0.00,0.00,-0.915,-0.359,9.665,-0.305,-0.671,0.183,28.16,7.67,7.73,1.2,9.7,1,1,1,1
2563828,1,0,1,0.000,0.000,0.000,0.000,0,0,67,2010,0,0,0,0,0.00,0.00,-0.895,-0.368,9.638,-0.427,-0.671,0.122,28.18,7.65,7.73,1.2,9.7,1,1,1,1
2573828,1,0,1,0.000,0.000,0.000,0.000,0,0,68,2010,-1,0,-1,0,-0.29,0.00,-0.899,-0.362,9.649,-0.305,-0.732,0.122,28.18,7.64,7.73,1.2,9.7,1,1,1,1
2583828,1,0,1,0.000,0.000,0.000,0.000,0,0,67,2010,1,0,0,0,-0.29,0.00,-0.904,-0.366,9.634,-0.305,-0.671,0.244,28.16,7.64,7.73,1.0,7.7,1,1,1,1
2593828,1,0,1,0.000,0.000,0.000,0.000,0,0,67,2010,0,0,0,0,-0.29,0.00,-0.907,-0.376,9.658,-0.244,-0.671,0.183,28.20,7.67,7.73,1.2,9.7,1,1,1,1
2603837,1,0,1,0.000,0.000,0.000,0.000,0,0,68,2010,-1,0,-1,0,-0.29,0.00,-0.898,-0.388,9.672,-0.305,-0.671,0.183,28.20,7.67,7.73,1.2,9.7,1,1,1,1
2613837,1,0,1,0.000,0.000,0.000,0.000,0,0,68,2010,0,0,-1,0,-0.29,0.00,-0.908,-0.369,9.652,-0.305,-0.671,0.122,28.22,7.65,7.73,1.0,7.7,1,1,1,1
2623850,1,0,1,0.000,0.000,0.000,0.000,0,0,67,2010,1,0,0,0,0.29,0.00,-0.910,-0.371,9.668,-0.305,-0.671,0.122,28.21,7.64,7.72,1.0,7.7,1,1,1,1
2633858,1,0,1,0.000,0.000,0.000,0.000,0,0,67,2010,0,0,0,0,0.29,0.00,-0.903,-0.366,9.655,-0.244,-0.610,0.183,28.19,7.67,7.73,1.2,9.7,1,1,1,1
2643867,1,0,1,0.000,0.000,0.000,0.000,0,0,67,2010,0,0,0,0,0.29,0.00,-0.904,-0.363,9.653,-0.305,-0.732,0.122,28.14,7.68,7.73,1.2,9.7,1,1,1,1
2653867,1,0,1,0.000,0.000,0.000,0.000,0,0,67,2010,0,0,0,0,0.29,0.00,-0.895,-0.377,9.640,-0.305,-0.732,0.183,28.17,7.65,7.73,1.2,9.7,1,1,1,1
2663867,1,0,1,0.000,0.000,0.000,0.000,0,0,68,2010,-1,0,-1,0,0.29,0.00,-0.900,-0.376,9.635,-0.366,-0.732,0.183,28.14,7.65,7.73,1.5,11.6,1,1,1,1
2673874,1,0,1,0.000,0.000,0.000,0.000,0,0,68,2010,0,0,-1,0,-0.29,0.00,-0.905,-0.377,9.647,-0.244,-0.732,0.183,28.16,7.65,7.73,1.2,9.7,1,1,1,1
2683882,1,0,1,0.000,0.000,0.000,0.000,0,0,67,2010,1,0,0,0,-0.29,0.00,-0.895,-0.369,9.659,-0.183,-0.671,0.183,28.14,7.67,7.73,1.2,9.7,1,1,1,1
2693889,1,0,1,0.000,0.000,0.000,0.000,0,0,67,2010,0,0,0,0,-0.29,0.00,-0.901,-0.384,9.658,-0.366,-0.671,0.183,28.20,7.64,7.73,1.5,11.6,1,1,1,1
2703897,1,0,1,0.000,0.000,0.000,0.000,0,0,67,2010,0,0,0,0,-0.29,0.00,-0.922,-0.389,9.661,-0.366,-0.671,0.183,28.19,7.65,7.73,1.2,9.7,1,1,1,1
2713897,1,0,1,0.000,0.000,0.000,0.000,0,0,67,2010,0,0,0,0,-0.29,0.00,-0.912,-0.372,9.662,-0.305,-0.610,0.122,28.17,7.67,7.73,1.2,9.7,1,1,1,1
2723904,1,0,1,0.000,0.000,0.000,0.000,0,0,67,2010,0,0,0,0,0.29,0.00,-0.912,-0.380,9.642,-0.305,-0.671,0.061,28.21,7.65,7.73,1.2,9.7,1,1,1,1
2733904,1,0,1,0.000,0.000,0.000,0.000,0,0,68,2010,-1,0,-1,0,0.29,0.00,-0.900,-0.377,9.649,-0.427,-0.732,0.183,28.19,7.67,7.73,1.2,9.7,1,1,1,1
2743913,1,0,1,0.000,0.000,0.000,0.000,0,0,68,2010,0,0,-1,0,0.29,0.00,-0.894,-0.370,9.662,-0.366,-0.732,0.183,28.19,7.67,7.73,1.2,9.7,1,1,1,1
2753919,1,0,1,0.000,0.000,0.000,0.000,0,0,68,2010,0,0,-1,0,0.29,0.00,-0.896,-0.369,9.676,-0.366,-0.671,0.183,28.19,7.67,7.73,1.2,9.7,1,1,1,1
2763919,1,0,1,0.000,0.000,0.000,0.000,0,0,67,2010,1,0,0,0,0.29,0.00,-0.916,-0.362,9.641,-0.366,-0.732,0.183,28.15,7.64,7.73,1.2,9.7,1,1,1,1
2773919,1,0,1,0.000,0.000,0.000,0.000,0,0,67,2010,0,0,0,0,0.00,0.00,-0.901,-0.362,9.667,-0.366,-0.671,0.183,28.19,7.65,7.73,1.0,7.7,1,1,1,1
2783919,1,0,1,0.000,0.000,0.000,0.000,0,0,67,2010,0,0,0,0,0.00,0.00,-0.896,-0.388,9.679,-0.366,-0.732,0.183,28.19,7.67,7.73,1.2,9.7,1,1,1,1
2793928,1,0,1,0.000,0.000,0.000,0.000,0,0,67,2010,0,0,0,0,0.00,0.00,-0.916,-0.368,9.671,-0.366,-0.671,0.183,28.19,7.64,7.73,1.5,11.6,1,1,1,1
2803934,1,0,1,0.000,0.000,0.000,0.000,0,0,68,2010,-1,0,-1,0,0.00,0.00,-0.898,-0.375,9.660,-0.305,-0.610,0.183,28.16,7.62,7.73,1.2,9.7,1,1,1,1
2813934,1,0,1,0.000,0.000,0.000,0.000,0,0,68,2010,0,0,-1,0,0.00,0.00,-0.912,-0.360,9.662,-0.366,-0.610,0.183,28.17,7.67,7.74,1.2,9.7,1,1,1,1
2823943,1,0,1,0.000,0.000,0.000,0.000,0,0,68,2010,0,0,-1,0,-0.29,0.00,-0.909,-0.372,9.656,-0.427,-0.671,0.183,28.19,7.64,7.73,1.2,9.7,1,1,1,1
2833952,1,0,1,0.000,0.000,0.000,0.000,0,0,67,2010,1,0,0,0,-0.29,0.00,-0.916,-0.387,9.647,-0.427,-0.732,0.183,28.18,7.67,7.74,1.0,7.7,1,1,1,1
2843952,1,0,1,0.000,0.000,0.000,0.000,0,0,67,2010,0,0,0,0,-0.29,0.00,-0.908,-0.376,9.659,-0.305,-0.671,0.183,28.19,7.64,7.73,1.2,9.7,1,1,1,1
2853959,1,0,1,0.000,0.000,0.000,0.000,0,0,68,2010,-1,0,-1,0,-0.29,0.00,-0.873,-0.368,9.640,-0.244,-0.671,0.122,28.18,7.65,7.73,1.0,7.7,1,1,1,1
2863967,1,0,1,0.000,0.000,0.000,0.000,0,0,67,2010,1,0,0,0,-0.29,0.00,-0.906,-0.381,9.648,-0.366,-0.671,0.183,28.14,7.65,7.73,1.2,9.7,1,1,1,1
2873974,1,0,1,0.000,0.000,0.000,0.000,0,0,67,2010,0,0,0,0,0.29,0.00,-0.916,-0.385,9.673,-0.366,-0.671,0.183,28.16,7.67,7.73,1.2,9.7,1,1,1,1
2883982,1,0,1,0.000,0.000,0.000,0.000,0,0,68,2010,-1,0,-1,0,0.29,0.00,-0.904,-0.378,9.670,-0.427,-0.671,0.244,28.16,7.67,7.73,1.2,9.7,1,1,1,1
2893982,1,0,1,0.000,0.000,0.000,0.000,0,0,67,2010,1,0,0,0,0.29,0.00,-0.910,-0.399,9.654,-0.488,-0.610,0.244,28.16,7.65,7.73,1.2,9.7,1,1,1,1
2903989,1,0,1,0.000,0.000,0.000,0.000,0,0,67,2010,0,0,0,0,0.29,0.00,-0.912,-0.342,9.647,-0.366,-0.732,0.183,28.14,7.67,7.74,1.2,9.7,1,1,1,1
2913997,1,0,1,0.000,0.000,0.000,0.000,0,0,67,2010,0,0,0,0,0.29,0.00,-0.912,-0.368,9.671,-0.366,-0.732,0.183,28.17,7.65,7.73,1.2,9.7,1,1,1,1
2923997,1,0,1,0.000,0.000,0.000,0.000,0,0,67,2010,0,0,0,0,0.00,0.00,-0.892,-0.369,9.649,-0.366,-0.793,0.183,28.18,7.64,7.73,1.2,9.7,1,1,1,1
2934004,1,0,1,0.000,0.000,0.000,0.000,0,0,67,2010,0,0,0,0,0.00,0.00,-0.906,-0.371,9.629,-0.427,-0.732,0.244,28.17,7.67,7.73,1.2,9.7,1,1,1,1
2944013,1,0,1,0.000,0.000,0.000,0.000,0,0,68,2010,-1,0,-1,0,0.00,0.00,-0.902,-0.375,9.679,-0.305,-0.671,0.183,28.19,7.67,7.73,1.2,9.7,1,1,1,1
2954019,1,0,1,0.000,0.000,0.000,0.000,0,0,68,2010,0,0,-1,0,0.00,0.00,-0.901,-0.362,9.647,-0.366,-0.732,0.122,28.18,7.67,7.73,1.2,9.7,1,1,1,1
2964028,1,0,1,0.000,0.000,0.000,0.000,0,0,67,2010,1,0,0,0,0.00,0.00,-0.898,-0.359,9.655,-0.305,-0.610,0.244,28.17,7.67,7.73,1.2,9.7,1,1,1,1
2974035,1,0,1,0.000,0.000,0.000,0.000,0,0,67,2010,0,0,0,0,0.00,0.00,-0.911,-0.377,9.651,-0.305,-0.610,0.122,28.18,7.68,7.74,1.2,9.7,1,1,1,1
2984050,1,0,1,0.000,0.000,0.000,0.000,0,0,68,2010,-1,0,-1,0,0.00,0.00,-0.900,-0.362,9.673,-0.305,-0.671,0.183,28.19,7.65,7.74,1.2,9.7,1,1,1,1
2994058,1,0,1,0.000,0.000,0.000,0.000,0,0,67,2010,1,0,0,0,0.00,0.00,-0.915,-0.365,9.653,-0.244,-0.732,0.244,28.14,7.64,7.73,1.2,9.7,1,1,1,1
3004065,1,0,1,0.000,0.000,0.000,0.000,0,0,67,2010,0,0,0,0,0.00,0.00,-0.894,-0.369,9.642,-0.366,-0.732,0.122,28.21,7.65,7.74,1.2,9.7,1,1,1,1
3014073,1,0,1,0.000,0.000,0.000,0.000,0,0,68,2010,-1,0,-1,0,0.00,0.00,-0.890,-0.391,9.664,-0.366,-0.671,0.122,28.17,7.65,7.74,1.0,7.7,1,1,1,1
3024080,1,0,1,0.000,0.000,0.000,0.000,0,0,68,2010,0,0,-1,0,-0.29,0.00,-0.904,-0.379,9.676,-0.305,-0.671,0.244,28.17,7.64,7.74,1.0,7.7,1,1,1,1
3034080,1,0,1,0.000,0.000,0.000,0.000,0,0,67,2010,1,0,0,0,-0.29,0.00,-0.918,-0.376,9.655,-0.244,-0.671,0.244,28.19,7.65,7.73,1.2,9.7,1,1,1,1
3044080,1,0,1,0.000,0.000,0.000,0.000,0,0,67,2010,0,0,0,0,-0.29,0.00,-0.908,-0.382,9.650,-0.305,-0.732,0.183,28.20,7.65,7.73,1.0,7.7,1,1,1,1
3054088,1,0,1,0.000,0.000,0.000,0.000,0,0,67,2010,0,0,0,0,-0.29,0.00,-0.903,-0.392,9.656,-0.305,-0.793,0.183,28.15,7.63,7.73,1.2,9.7,1,1,1,1
3064088,1,0,1,0.000,0.000,0.000,0.000,0,0,67,2010,0,0,0,0,-0.29,0.00,-0.900,-0.392,9.641,-0.366,-0.671,0.183,28.21,7.64,7.73,1.2,9.7,1,1,1,1
3074095,1,0,1,0.000,0.000,0.000,0.000,0,0,67,2010,0,0,0,0,0.29,0.00,-0.913,-0.373,9.675,-0.305,-0.732,0.122,28.18,7.64,7.73,1.2,9.7,1,1,1,1
3084104,1,0,1,0.000,0.000,0.000,0.000,0,0,67,2010,0,0,0,0,0.29,0.00,-0.893,-0.382,9.667,-0.366,-0.732,0.122,28.17,7.65,7.73,1.2,9.7,1,1,1,1
3094104,1,0,1,0.000,0.000,0.000,0.000,0,0,68,2010,-1,0,-1,0,0.29,0.00,-0.904,-0.378,9.643,-0.366,-0.610,0.061,28.22,7.63,7.73,1.2,9.7,1,1,1,1
3104110,1,0,1,0.000,0.000,0.000,0.000,0,0,68,2010,0,0,-1,0,0.29,0.00,-0.881,-0.380,9.641,-0.305,-0.671,0.244,28.12,7.65,7.73,1.2,9.7,1,1,1,1
3114110,1,0,1,0.000,0.000,0.000,0.000,0,0,67,2010,1,0,0,0,0.29,0.00,-0.897,-0.378,9.654,-0.366,-0.671,0.244,28.20,7.64,7.73,1.0,7.7,1,1,1,1
3124110,1,0,1,0.000,0.000,0.000,0.000,0,0,67,2010,0,0,0,0,0.00,0.00,-0.915,-0.346,9.655,-0.366,-0.732,0.183,28.12,7.64,7.73,1.2,9.7,1,1,1,1
3134110,1,0,1,0.000,0.000,0.000,0.000,0,0,67,2010,0,0,0,0,0.00,0.00,-0.915,-0.363,9.652,-0.305,-0.671,0.244,28.15,7.67,7.73,1.0,7.7,1,1,1,1
3144119,1,0,1,0.000,0.000,0.000,0.000,0,0,67,2010,0,0,0,0,0.00,0.00,-0.889,-0.383,9.664,-0.427,-0.671,0.122,28.14,7.63,7.73,1.0,7.7,1,1,1,1
3154126,1,0,1,0.000,0.000,0.000,0.000,0,0,67,2010,0,0,0,0,0.00,0.00,-0.919,-0.395,9.656,-0.305,-0.671,0.122,28.14,7.67,7.73,1.0,7.7,1,1,1,1
3164126,1,0,1,0.000,0.000,0.000,0.000,0,0,68,2010,-1,0,-1,0,0.00,0.00,-0.895,-0.379,9.651,-0.427,-0.732,0.183,28.20,7.67,7.73,1.2,9.7,1,1,1,1
3174126,1,0,1,0.000,0.000,0.000,0.000,0,0,68,2010,0,0,-1,0,-0.29,0.00,-0.903,-0.371,9.655,-0.366,-0.732,0.183,28.20,7.65,7.73,1.2,9.7,1,1,1,1
3184126,1,0,1,0.000,0.000,0.000,0.000,0,0,67,2010,1,0,0,0,-0.29,0.00,-0.900,-0.387,9.653,-0.366,-0.671,0.183,28.20,7.64,7.73,1.2,9.7,1,1,1,1
3194126,1,0,1,0.000,0.000,0.000,0.000,0,0,67,2010,0,0,0,0,-0.29,0.00,-0.890,-0.385,9.641,-0.366,-0.671,0.183,28.18,7.63,7.73,1.5,11.6,1,1,1,1
3204141,1,0,1,0.000,0.000,0.000,0.000,0,0,67,2010,0,0,0,0,-0.29,0.00,-0.912,-0.373,9.626,-0.427,-0.610,0.183,28.15,7.65,7.72,1.2,9.7,1,1,1,1
3214141,1,0,1,0.000,0.000,0.000,0.000,0,0,67,2010,0,0,0,0,-0.29,0.00,-0.899,-0.387,9.655,-0.427,-0.671,0.061,28.16,7.65,7.73,1.0,7.7,1,1,1,1
3224141,1,0,1,0.000,0.000,0.000,0.000,0,0,67,2010,0,0,0,0,0.29,0.00,-0.897,-0.384,9.653,-0.305,-0.793,0.122,28.21,7.64,7.73,1.2,9.7,1,1,1,1
3234149,1,0,1,0.000,0.000,0.000,0.000,0,0,68,2010,-1,0,-1,0,0.29,0.00,-0.892,-0.382,9.662,-0.366,-0.732,0.244,28.18,7.64,7.73,1.2,9.7,1,1,1,1
3244156,1,0,1,0.000,0.000,0.000,0.000,0,0,67,2010,1,0,0,0,0.29,0.00,-0.908,-0.393,9.660,-0.366,-0.671,0.244,28.14,7.65,7.74,1.2,9.7,1,1,1,1
3254164,1,0,1,0.000,0.000,0.000,0.000,0,0,67,2010,0,0,0,0,0.29,0.00,-0.898,-0.382,9.631,-0.427,-0.671,0.183,28.19,7.67,7.73,1.2,9.7,1,1,1,1
3264171,1,0,1,0.000,0.000,0.000,0.000,0,0,67,2010,0,0,0,0,0.29,0.00,-0.898,-0.363,9.651,-0.427,-0.732,0.183,28.19,7.67,7.73,1.2,9.7,1,1,1,1
3274180,1,0,1,0.000,0.000,0.000,0.000,0,0,67,2010,0,0,0,0,0.00,0.00,-0.887,-0.378,9.665,-0.366,-0.732,0.122,28.17,7.65,7.73,1.2,9.7,1,1,1,1
3284195,1,0,1,0.000,0.000,0.000,0.000,0,0,67,2010,0,0,0,0,0.00,0.00,-0.900,-0.382,9.671,-0.305,-0.610,0.183,28.16,7.68,7.73,1.0,7.7,1,1,1,1
3294195,1,0,1,0.000,0.000,0.000,0.000,0,0,68,2010,-1,0,-1,0,0.00,0.00,-0.908,-0.379,9.648,-0.366,-0.610,0.183,28.16,7.67,7.73,1.2,9.7,1,1,1,1
3304195,1,0,1,0.000,0.000,0.000,0.000,0,0,68,2010,0,0,-1,0,0.00,0.00,-0.900,-0.379,9.683,-0.366,-0.610,0.122,28.20,7.65,7.73,1.2,9.7,1,1,1,1
3314195,1,0,1,0.000,0.000,0.000,0.000,0,0,67,2010,1,0,0,0,0.00,0.00,-0.914,-0.391,9.655,-0.244,-0.732,0.183,28.16,7.65,7.73,1.2,9.7,1,1,1,1
3324195,1,0,1,0.000,0.000,0.000,0.000,0,0,67,2010,0,0,0,0,0.00,0.00,-0.902,-0.381,9.661,-0.305,-0.732,0.183,28.14,7.65,7.72,1.2,9.6,1,1,1,1
3334201,1,0,1,0.000,0.000,0.000,0.000,0,0,67,2010,0,0,0,0,0.00,0.00,-0.902,-0.381,9.661,-0.305,-0.732,0.183,28.19,7.65,7.73,1.2,9.7,1,1,1,1
3344201,1,0,1,0.000,0.000,0.000,0.000,0,0,67,2010,0,0,0,0,0.00,0.00,-0.897,-0.353,9.656,-0.366,-0.732,0.122,28.19,7.67,7.73,1.2,9.7,1,1,1,1
3354201,1,0,1,0.000,0.000,0.000,0.000,0,0,67,2010,0,0,0,0,0.00,0.00,-0.888,-0.371,9.665,-0.427,-0.671,0.122,28.16,7.67,7.73,1.2,9.7,1,1,1,1
3364201,1,0,1,0.000,0.000,0.000,0.000,0,0,68,2010,-1,0,-1,0,0.00,0.00,-0.912,-0.354,9.651,-0.305,-0.671,0.183,28.18,7.67,7.73,1.0,7.7,1,1,1,1
3374210,1,0,1,0.000,0.000,0.000,0.000,0,0,67,2010,1,0,0,0,0.00,0.00,-0.912,-0.364,9.661,-0.366,-0.610,0.183,28.20,7.64,7.73,1.2,9.7,1,1,1,1
3384210,1,0,1,0.000,0.000,0.000,0.000,0,0,68,2010,-1,0,-1,0,0.00,0.00,-0.886,-0.399,9.655,-0.427,-0.732,0.061,28.17,7.67,7.73,1.0,7.7,1,1,1,1
3394217,1,0,1,0.000,0.000,0.000,0.000,0,0,67,2010,1,0,0,0,0.00,0.00,-0.889,-0.403,9.658,-0.427,-0.732,0.244,28.19,7.67,7.74,1.2,9.7,1,1,1,1
3404217,1,0,1,0.000,0.000,0.000,0.000,0,0,67,2010,0,0,0,0,0.00,0.00,-0.900,-0.387,9.662,-0.305,-0.671,0.244,28.19,7.64,7.73,1.2,9.7,1,1,1,1
3414217,1,0,1,0.000,0.000,0.000,0.000,0,0,67,2010,0,0,0,0,0.00,0.00,-0.888,-0.366,9.647,-0.366,-0.671,0.183,28.20,7.67,7.73,1.2,9.7,1,1,1,1
3424217,1,0,1,0.000,0.000,0.000,0.000,0,0,67,2010,0,0,0,0,0.00,0.00,-0.895,-0.369,9.631,-0.305,-0.549,0.183,28.16,7.65,7.73,1.2,9.7,1,1,1,1
3434225,1,0,1,0.000,0.000,0.000,0.000,0,0,68,2010,-1,0,-1,0,0.00,0.00,-0.890,-0.380,9.660,-0.427,-0.793,0.183,28.16,7.67,7.73,1.2,9.7,1,1,1,1
3444232,1,0,1,0.000,0.000,0.000,0.000,0,0,67,2010,1,0,0,0,0.00,0.00,-0.899,-0.383,9.666,-0.427,-0.732,0.183,28.19,7.67,7.73,1.0,7.7,1,1,1,1
3454232,1,0,1,0.000,0.000,0.000,0.000,0,0,67,2010,0,0,0,0,0.00,0.00,-0.904,-0.384,9.649,-0.305,-0.732,0.183,28.21,7.65,7.73,1.2,9.7,1,1,1,1
3464240,1,0,1,0.000,0.000,0.000,0.000,0,0,68,2010,-1,0,-1,0,0.00,0.00,-0.897,-0.384,9.672,-0.427,-0.732,0.122,28.20,7.65,7.73,1.2,9.7,1,1,1,1
3474247,1,0,1,0.000,0.000,0.000,0.000,0,0,67,2010,1,0,0,0,0.00,0.00,-0.906,-0.370,9.658,-0.366,-0.671,0.122,28.19,7.67,7.73,1.0,7.7,1,1,1,1
3484247,1,0,1,0.000,0.000,0.000,0.000,0,0,67,2010,0,0,0,0,0.00,0.00,-0.910,-0.359,9.653,-0.366,-0.671,0.183,28.15,7.67,7.73,1.0,7.7,1,1,1,1
3494255,1,0,1,0.000,0.000,0.000,0.000,0,0,67,2010,0,0,0,0,0.00,0.00,-0.899,-0.360,9.663,-0.427,-0.793,0.244,28.19,7.68,7.73,1.2,9.7,1,1,1,1
3504255,1,0,1,0.000,0.000,0.000,0.000,0,0,67,2010,0,0,0,0,0.00,0.00,-0.898,-0.381,9.650,-0.366,-0.732,0.183,28.17,7.65,7.73,1.0,7.7,1,1,1,1
3514255,1,0,1,0.000,0.000,0.000,0.000,0,0,68,2010,-1,0,-1,0,0.00,0.00,-0.901,-0.374,9.648,-0.305,-0.671,0.183,28.20,7.67,7.73,1.0,7.7,1,1,1,1
3524255,1,0,1,0.000,0.000,0.000,0.000,0,0,67,2010,1,0,0,0,0.00,0.00,-0.886,-0.374,9.670,-0.305,-0.671,0.183,28.19,7.65,7.73,1.2,9.7,1,1,1,1
3534255,1,0,1,0.000,0.000,0.000,0.000,0,0,67,2010,0,0,0,0,0.00,0.00,-0.891,-0.375,9.677,-0.427,-0.732,0.183,28.18,7.65,7.73,1.2,9.7,1,1,1,1
3544262,1,0,1,0.000,0.000,0.000,0.000,0,0,68,2010,-1,0,-1,0,0.00,0.00,-0.901,-0.359,9.658,-0.305,-0.732,0.122,28.17,7.61,7.73,1.0,7.7,1,1,1,1
3554262,1,0,1,0.000,0.000,0.000,0.000,0,0,67,2010,1,0,0,0,0.00,0.00,-0.903,-0.360,9.665,-0.305,-0.610,0.183,28.17,7.65,7.73,1.0,7.7,1,1,1,1
3564262,1,0,1,0.000,0.000,0.000,0.000,0,0,67,2010,0,0,0,0,0.00,0.00,-0.913,-0.377,9.654,-0.305,-0.671,0.183,28.14,7.65,7.73,1.0,7.7,1,1,1,1
3574262,1,0,1,0.000,0.000,0.000,0.000,0,0,67,2010,0,0,0,0,0.00,0.00,-0.906,-0.381,9.673,-0.305,-0.793,0.183,28.14,7.67,7.73,1.2,9.7,1,1,1,1
3584270,1,0,1,0.000,0.000,0.000,0.000,0,0,67,2010,0,0,0,0,0.00,0.00,-0.900,-0.365,9.641,-0.305,-0.671,0.244,28.17,7.63,7.73,1.2,9.7,1,1,1,1
3594277,1,0,1,0.000,0.000,0.000,0.000,0,0,67,2010,0,0,0,0,0.00,0.00,-0.907,-0.378,9.644,-0.305,-0.610,0.244,28.22,7.65,7.73,1.2,9.7,1,1,1,1
3604286,1,0,1,0.000,0.000,0.000,0.000,0,0,68,2010,-1,0,-1,0,0.00,0.00,-0.900,-0.362,9.680,-0.244,-0.732,0.183,28.24,7.67,7.73,1.2,9.7,1,1,1,1
3614292,1,0,1,0.000,0.000,0.000,0.000,0,0,68,2010,0,0,-1,0,0.00,0.00,-0.910,-0.373,9.652,-0.305,-0.671,0.122,28.15,7.65,7.73,1.0,7.7,1,1,1,1
3624297,1,0,1,0.000,0.000,0.000,0.000,0,0,67,2010,1,0,0,0,0.00,0.00,-0.877,-0.375,9.651,-0.305,-0.732,0.183,28.22,7.65,7.72,1.2,9.7,1,1,1,1
3634308,1,0,1,0.000,0.000,0.000,0.000,0,0,67,2010,0,0,0,0,0.00,0.00,-0.885,-0.372,9.641,-0.244,-0.671,0.183,28.23,7.65,7.73,1.0,7.7,1,1,1,1
3644308,1,0,1,0.000,0.000,0.000,0.000,0,0,67,2010,0,0,0,0,0.00,0.00,-0.889,-0.382,9.659,-0.305,-0.732,0.183,28.20,7.67,7.73,1.2,9.7,1,1,1,1
3654308,1,0,1,0.000,0.000,0.000,0.000,0,0,67,2010,0,0,0,0,0.00,0.00,-0.900,-0.386,9.665,-0.244,-0.671,0.183,28.20,7.65,7.74,1.2,9.7,1,1,1,1
3664308,1,0,1,0.000,0.000,0.000,0.000,0,0,67,2010,0,0,0,0,0.00,0.00,-0.892,-0.384,9.656,-0.122,-0.732,0.244,28.17,7.65,7.74,1.2,9.7,1,1,1,1
3674316,1,0,1,0.000,0.000,0.000,0.000,0,0,68,2010,-1,0,-1,0,-0.29,0.00,-0.890,-0.377,9.652,-0.244,-0.793,0.183,28.21,7.64,7.74,1.2,9.7,1,1,1,1
3684323,1,0,1,0.000,0.000,0.000,0.000,0,0,68,2010,0,0,-1,0,-0.29,0.00,-0.913,-0.375,9.643,-0.183,-0.732,0.183,28.19,7.65,7.73,1.2,9.7,1,1,1,1
3694331,1,0,1,0.000,0.000,0.000,0.000,0,0,67,2010,1,0,0,0,-0.29,0.00,-0.904,-0.361,9.649,-0.244,-0.732,0.122,28.17,7.67,7.73,1.0,7.7,1,1,1,1
3704331,1,0,1,0.000,0.000,0.000,0.000,0,0,67,2010,0,0,0,0,-0.29,0.00,-0.895,-0.360,9.633,-0.427,-0.732,0.244,28.17,7.67,7.73,1.2,9.7,1,1,1,1
3714331,1,0,1,0.000,0.000,0.000,0.000,0,0,67,2010,0,0,0,0,-0.29,0.00,-0.889,-0.357,9.619,-0.366,-0.732,0.183,28.13,7.67,7.74,1.2,9.7,1,1,1,1
3724338,1,0,1,0.000,0.000,0.000,0.000,0,0,68,2010,-1,0,-1,0,0.00,0.00,-0.891,-0.363,9.639,-0.366,-0.671,0.061,28.15,7.64,7.73,1.2,9.7,1,1,1,1
3734338,1,0,1,0.000,0.000,0.000,0.000,0,0,68,2010,0,0,-1,0,0.00,0.00,-0.900,-0.360,9.645,-0.366,-0.671,0.244,28.18,7.67,7.73,1.2,9.7,1,1,1,1
3744338,1,0,1,0.000,0.000,0.000,0.000,0,0,68,2010,0,0,-1,0,0.00,0.00,-0.894,-0.380,9.657,-0.366,-0.732,0.122,28.18,7.67,7.73,1.2,9.7,1,1,1,1
3754346,1,0,1,0.000,0.000,0.000,0.000,0,0,68,2010,0,0,-1,0,0.00,0.00,-0.892,-0.367,9.651,-0.427,-0.732,0.122,28.21,7.67,7.73,1.2,9.7,1,1,1,1
3764353,1,0,1,0.000,0.000,0.000,0.000,0,0,67,2010,1,0,0,0,0.00,0.00,-0.895,-0.354,9.647,-0.305,-0.610,0.183,28.16,7.64,7.73,1.2,9.7,1,1,1,1
3774362,1,0,1,0.000,0.000,0.000,0.000,0,0,67,2010,0,0,0,0,0.29,0.00,-0.915,-0.371,9.629,-0.305,-0.732,0.183,28.20,7.67,7.74,1.2,9.7,1,1,1,1
3784368,1,0,1,0.000,0.000,0.000,0.000,0,0,67,2010,0,0,0,0,0.29,0.00,-0.919,-0.368,9.659,-0.305,-0.671,0.122,28.20,7.68,7.74,1.2,9.7,1,1,1,1
3794377,1,0,1,0.000,0.000,0.000,0.000,0,0,67,2010,0,0,0,0,0.29,0.00,-0.892,-0.381,9.670,-0.305,-0.671,0.122,28.15,7.65,7.73,1.2,9.7,1,1,1,1
3804384,1,0,1,0.000,0.000,0.000,0.000,0,0,67,2010,0,0,0,0,0.29,0.00,-0.904,-0.363,9.653,-0.366,-0.671,0.244,28.21,7.67,7.74,1.2,9.7,1,1,1,1
3814392,1,0,1,0.000,0.000,0.000,0.000,0,0,68,2010,-1,0,-1,0,0.29,0.00,-0.905,-0.380,9.665,-0.427,-0.732,0.244,28.25,7.67,7.74,1.2,9.7,1,1,1,1
3824399,1,0,1,0.000,0.000,0.000,0.000,1,1,68,2010,0,0,-1,0,-0.29,0.00,-0.897,-0.382,9.669,-0.305,-0.671,0.183,28.18,7.65,7.73,1.2,9.7,1,1,1,1
3834399,1,0,1,0.000,0.000,0.000,0.000,1,1,68,2010,0,0,-1,0,-0.29,0.00,-0.914,-0.379,9.653,-0.305,-0.671,0.183,28.26,7.67,7.73,1.2,9.7,1,1,1,1
3844407,1,0,1,0.000,0.000,0.000,0.000,1,1,67,2010,1,0,0,0,-0.29,0.00,-0.894,-0.378,9.658,-0.305,-0.732,0.183,28.26,7.65,7.73,1.0,7.7,1,1,1,1
3854407,1,0,1,0.000,0.000,0.000,0.000,1,1,67,2010,0,0,0,0,-0.29,0.00,-0.913,-0.378,9.664,-0.366,-0.732,0.183,28.13,7.64,7.74,1.2,9.7,1,1,1,1
3864407,1,0,1,0.000,0.000,0.000,0.000,1,1,67,2010,0,0,0,0,-0.29,0.00,-0.887,-0.392,9.661,-0.366,-0.671,0.183,28.21,7.67,7.74,1.0,7.7,1,1,1,1
3874414,1,0,1,0.000,0.000,0.000,0.000,1,1,68,2010,-1,0,-1,0,0.00,0.00,-0.892,-0.350,9.650,-0.366,-0.671,0.061,28.22,7.63,7.73,1.0,7.7,1,1,1,1
3884422,1,0,1,0.000,0.000,0.000,0.000,1,1,68,2010,0,0,-1,0,0.00,0.00,-0.895,-0.353,9.661,-0.305,-0.671,0.183,28.19,7.67,7.73,1.2,9.7,1,1,1,1
3894429,1,0,1,0.000,0.000,0.000,0.000,1,1,68,2010,0,0,-1,0,0.00,0.00,-0.913,-0.369,9.676,-0.366,-0.732,0.183,28.20,7.65,7.73,1.2,9.7,1,1,1,1
3904437,1,0,1,0.000,0.000,0.000,0.000,1,1,67,2010,1,0,0,0,0.00,0.00,-0.904,-0.376,9.660,-0.366,-0.671,0.183,28.20,7.65,7.73,1.0,7.7,1,1,1,1
3914453,1,0,1,0.000,0.000,0.000,0.000,1,1,67,2010,0,0,0,0,0.00,0.00,-0.897,-0.356,9.653,-0.366,-0.671,0.183,28.16,7.64,7.72,1.2,9.6,1,1,1,1
3924457,1,0,1,0.000,0.000,0.000,0.000,1,1,68,2010,-1,0,-1,0,0.00,0.00,-0.906,-0.361,9.649,-0.305,-0.732,0.183,28.17,7.65,7.73,1.2,9.7,1,1,1,1
3934457,1,0,1,0.000,0.000,0.000,0.000,1,1,67,2010,1,0,0,0,0.00,0.00,-0.900,-0.382,9.675,-0.305,-0.671,0.122,28.20,7.67,7.73,1.2,9.7,1,1,1,1
3944457,1,0,1,0.000,0.000,0.000,0.000,1,1,67,2010,0,0,0,0,0.00,0.00,-0.890,-0.382,9.688,-0.366,-0.549,0.183,28.19,7.67,7.73,1.2,9.7,1,1,1,1
3954464,1,0,1,0.000,0.000,0.000,0.000,1,1,68,2010,-1,0,-1,0,0.00,0.00,-0.902,-0.386,9.650,-0.366,-0.671,0.244,28.20,7.65,7.73,1.2,9.7,1,1,1,1
3964464,1,0,1,0.000,0.000,0.000,0.000,1,1,67,2010,1,0,0,0,0.00,0.00,-0.907,-0.364,9.652,-0.366,-0.732,0.183,28.16,7.67,7.73,1.0,7.7,1,1,1,1
3974464,1,0,1,0.000,0.000,0.000,0.000,1,1,67,2010,0,0,0,0,0.29,0.00,-0.889,-0.387,9.665,-0.366,-0.732,0.183,28.20,7.65,7.73,1.2,9.7,1,1,1,1
3984464,1,0,1,0.000,0.000,0.000,0.000,1,1,67,2010,0,0,0,0,0.29,0.00,-0.913,-0.394,9.660,-0.427,-0.671,0.244,28.20,7.67,7.73,1.2,9.7,1,1,1,1
3994473,1,0,1,0.000,0.000,0.000,0.000,1,1,67,2010,0,0,0,0,0.29,0.00,-0.907,-0.376,9.643,-0.427,-0.671,0.244,28.16,7.64,7.73,1.2,9.7,1,1,1,1
4004473,1,0,1,0.000,0.000,0.000,0.000,1,1,68,2010,-1,0,-1,0,0.29,0.00,-0.914,-0.339,9.666,-0.427,-0.671,0.244,28.21,7.67,7.73,1.0,7.7,1,1,1,1
4014479,1,0,1,0.000,0.000,0.000,0.000,1,1,68,2010,0,0,-1,0,0.29,0.00,-0.882,-0.346,9.676,-0.366,-0.610,0.183,28.23,7.65,7.73,1.0,7.7,1,1,1,1
4024480,1,0,1,0.000,0.000,0.000,0.000,1,1,68,2010,0,0,-1,0,-0.29,0.00,-0.895,-0.371,9.625,-0.305,-0.671,0.183,28.20,7.65,7.73,1.0,7.7,1,1,1,1
4034488,1,0,1,0.000,0.000,0.000,0.000,1,1,67,2010,1,0,0,0,-0.29,0.00,-0.924,-0.350,9.656,-0.366,-0.732,0.244,28.17,7.64,7.73,1.2,9.7,1,1,1,1
4044494,1,0,1,0.000,0.000,0.000,0.000,1,1,67,2010,0,0,0,0,-0.29,0.00,-0.899,-0.364,9.663,-0.305,-0.732,0.183,28.17,7.67,7.73,1.2,9.7,1,1,1,1
4054494,1,0,1,0.000,0.000,0.000,0.000,1,1,67,2010,0,0,0,0,-0.29,0.00,-0.891,-0.368,9.653,-0.183,-0.671,0.183,28.21,7.67,7.73,1.0,7.7,1,1,1,1
4064503,1,0,1,0.000,0.000,0.000,0.000,1,1,67,2010,0,0,0,0,-0.29,0.00,-0.895,-0.347,9.664,-0.305,-0.671,0.183,28.17,7.67,7.73,1.0,7.7,1,1,1,1
4074503,1,0,1,0.000,0.000,0.000,0.000,1,1,67,2010,0,0,0,0,0.29,0.00,-0.910,-0.363,9.646,-0.427,-0.732,0.183,28.17,7.65,7.73,1.2,9.7,1,1,1,1
4084503,1,0,1,0.000,0.000,0.000,0.000,1,1,67,2010,0,0,0,0,0.29,0.00,-0.911,-0.359,9.642,-0.366,-0.671,0.183,28.22,7.64,7.73,1.2,9.7,1,1,1,1
4094509,1,0,1,0.000,0.000,0.000,0.000,1,1,68,2010,-1,0,-1,0,0.29,0.00,-0.897,-0.372,9.644,-0.366,-0.732,0.183,28.22,7.67,7.73,1.2,9.7,1,1,1,1
4104518,1,0,1,0.000,0.000,0.000,0.000,1,1,67,2010,1,0,0,0,0.29,0.00,-0.906,-0.369,9.672,-0.427,-0.610,0.183,28.21,7.67,7.73,1.2,9.7,1,1,1,1
4114525,1,0,1,0.000,0.000,0.000,0.000,1,1,67,2010,0,0,0,0,0.29,0.00,-0.893,-0.373,9.643,-0.366,-0.671,0.183,28.19,7.65,7.73,1.2,9.7,1,1,1,1
4124533,1,0,1,0.000,0.000,0.000,0.000,1,1,67,2010,0,0,0,0,0.00,0.00,-0.891,-0.389,9.641,-0.366,-0.732,0.244,28.19,7.65,7.73,1.2,9.7,1,1,1,1
4134533,1,0,1,0.000,0.000,0.000,0.000,1,1,67,2010,0,0,0,0,0.00,0.00,-0.910,-0.362,9.659,-0.427,-0.671,0.183,28.19,7.62,7.74,1.0,7.7,1,1,1,1
4144533,1,0,1,0.000,0.000,0.000,0.000,1,1,67,2010,0,0,0,0,0.00,0.00,-0.906,-0.379,9.647,-0.305,-0.671,0.122,28.19,7.67,7.73,1.2,9.7,1,1,1,1
4154533,1,0,1,0.000,0.000,0.000,0.000,1,1,67,2010,0,0,0,0,0.00,0.00,-0.904,-0.385,9.635,-0.305,-0.671,0.183,28.15,7.64,7.73,1.2,9.7,1,1,1,1
4164533,1,0,1,0.000,0.000,0.000,0.000,1,1,68,2010,-1,0,-1,0,0.00,0.00,-0.906,-0.378,9.658,-0.305,-0.671,0.122,28.21,7.65,7.73,1.2,9.7,1,1,1,1
4174540,1,0,1,0.000,0.000,0.000,0.000,1,1,67,2010,1,0,0,0,0.00,0.00,-0.916,-0.369,9.650,-0.366,-0.671,0.122,28.20,7.67,7.73,1.2,9.7,1,1,1,1
4184540,1,0,1,0.000,0.000,0.000,0.000,1,1,67,2010,0,0,0,0,0.00,0.00,-0.903,-0.351,9.662,-0.366,-0.732,0.183,28.17,7.64,7.73,1.0,7.7,1,1,1,1
4194548,1,0,1,0.000,0.000,0.000,0.000,1,1,68,2010,-1,0,-1,0,0.00,0.00,-0.904,-0.383,9.648,-0.305,-0.732,0.183,28.21,7.65,7.73,1.0,7.7,1,1,1,1
4204555,1,0,1,0.000,0.000,0.000,0.000,1,1,67,2010,1,0,0,0,0.00,0.00,-0.913,-0.371,9.653,-0.366,-0.610,0.183,28.15,7.65,7.72,1.0,7.7,1,1,1,1
4214564,1,0,1,0.000,0.000,0.000,0.000,1,1,67,2010,0,0,0,0,0.00,0.00,-0.920,-0.382,9.664,-0.305,-0.732,0.183,28.21,7.67,7.73,1.2,9.7,1,1,1,1
4224564,1,0,1,0.000,0.000,0.000,0.000,1,1,68,2010,-1,0,-1,0,-0.29,0.00,-0.904,-0.374,9.664,-0.366,-0.732,0.061,28.17,7.67,7.73,1.0,7.7,1,1,1,1
4234570,1,0,1,0.000,0.000,0.000,0.000,1,1,68,2010,0,0,-1,0,-0.29,0.00,-0.900,-0.374,9.671,-0.427,-0.732,0.061,28.17,7.63,7.73,1.2,9.7,1,1,1,1
4244579,1,0,1,0.000,0.000,0.000,0.000,1,1,68,2010,0,0,-1,0,-0.29,0.00,-0.889,-0.388,9.653,-0.366,-0.732,0.244,28.15,7.67,7.73,1.0,7.7,1,1,1,1
4254579,1,0,1,0.000,0.000,0.000,0.000,1,1,67,2010,1,0,0,0,-0.29,0.00,-0.900,-0.378,9.674,-0.366,-0.610,0.183,28.21,7.67,7.73,1.2,9.7,1,1,1,1
4264585,1,0,1,0.000,0.000,0.000,0.000,1,1,67,2010,0,0,0,0,-0.29,0.00,-0.917,-0.378,9.649,-0.305,-0.610,0.244,28.21,7.64,7.73,1.0,7.7,1,1,1,1
4274594,1,0,1,0.000,0.000,0.000,0.000,1,1,67,2010,0,0,0,0,0.29,0.00,-0.917,-0.378,9.649,-0.305,-0.610,0.244,28.17,7.65,7.73,1.2,9.7,1,1,1,1
4284594,1,0,1,0.000,0.000,0.000,0.000,1,1,67,2010,0,0,0,0,0.29,0.00,-0.897,-0.381,9.629,-0.366,-0.610,0.183,28.14,7.67,7.73,1.2,9.7,1,1,1,1
4294594,1,0,1,0.000,0.000,0.000,0.000,1,1,67,2010,0,0,0,0,0.29,0.00,-0.906,-0.363,9.650,-0.366,-0.671,0.122,28.23,7.65,7.73,1.2,9.7,1,1,1,1
4304594,1,0,1,0.000,0.000,0.000,0.000,1,1,68,2010,-1,0,-1,0,0.29,0.00,-0.900,-0.368,9.655,-0.366,-0.732,0.122,28.20,7.64,7.73,1.0,7.7,1,1,1,1
4314594,1,0,1,0.000,0.000,0.000,0.000,1,1,68,2010,0,0,-1,0,0.29,0.00,-0.893,-0.385,9.639,-0.427,-0.732,0.183,28.16,7.63,7.73,1.2,9.7,1,1,1,1
4324603,1,0,1,0.000,0.000,0.000,0.000,1,1,68,2010,0,0,-1,0,-0.29,0.00,-0.917,-0.364,9.666,-0.366,-0.793,0.183,28.21,7.62,7.72,1.2,9.6,1,1,1,1
4334609,1,0,1,0.000,0.000,0.000,0.000,1,1,67,2010,1,0,0,0,-0.29,0.00,-0.919,-0.367,9.685,-0.366,-0.671,0.183,28.20,7.65,7.73,1.2,9.7,1,1,1,1
4344616,1,0,1,0.000,0.000,0.000,0.000,1,1,67,2010,0,0,0,0,-0.29,0.00,-0.892,-0.381,9.676,-0.366,-0.671,0.183,28.23,7.64,7.73,1.2,9.7,1,1,1,1
4354616,1,0,1,0.000,0.000,0.000,0.000,1,1,68,2010,-1,0,-1,0,-0.29,0.00,-0.900,-0.371,9.659,-0.427,-0.732,0.122,28.18,7.65,7.73,1.0,7.7,1,1,1,1
4364616,1,0,1,0.000,0.000,0.000,0.000,1,1,67,2010,1,0,0,0,-0.29,0.00,-0.906,-0.394,9.649,-0.366,-0.610,0.000,28.15,7.67,7.74,1.2,9.7,1,1,1,1
4374616,1,0,1,0.000,0.000,0.000,0.000,1,1,68,2010,-1,0,-1,0,0.00,0.00,-0.895,-0.375,9.644,-0.366,-0.671,0.122,28.17,7.67,7.73,1.0,7.7,1,1,1,1
4384616,1,0,1,0.000,0.000,0.000,0.000,1,1,67,2010,1,0,0,0,0.00,0.00,-0.894,-0.369,9.637,-0.427,-0.671,0.244,28.17,7.67,7.73,1.2,9.7,1,1,1,1
4394616,1,0,1,0.000,0.000,0.000,0.000,1,1,67,2010,0,0,0,0,0.00,0.00,-0.893,-0.369,9.658,-0.427,-0.610,0.244,28.17,7.65,7.73,1.0,7.7,1,1,1,1
4404624,1,0,1,0.000,0.000,0.000,0.000,1,1,67,2010,0,0,0,0,0.00,0.00,-0.906,-0.370,9.637,-0.366,-0.671,0.183,28.17,7.67,7.73,1.2,9.7,1,1,1,1
4414631,1,0,1,0.000,0.000,0.000,0.000,1,1,67,2010,0,0,0,0,0.00,0.00,-0.913,-0.376,9.668,-0.427,-0.610,0.244,28.23,7.65,7.73,1.0,7.7,1,1,1,1
4424631,1,0,1,0.000,0.000,0.000,0.000,1,1,67,2010,0,0,0,0,0.29,0.00,-0.888,-0.369,9.677,-0.366,-0.671,0.122,28.20,7.65,7.73,1.2,9.7,1,1,1,1
4434631,1,0,1,0.000,0.000,0.000,0.000,1,1,67,2010,0,0,0,0,0.29,0.00,-0.899,-0.377,9.668,-0.305,-0.671,0.183,28.16,7.63,7.73,1.2,9.7,1,1,1,1
4444639,1,0,1,0.000,0.000,0.000,0.000,1,1,68,2010,-1,0,-1,0,0.29,0.00,-0.893,-0.365,9.642,-0.305,-0.732,0.183,28.22,7.65,7.73,1.2,9.7,1,1,1,1
4454639,1,0,1,0.000,0.000,0.000,0.000,1,1,68,2010,0,0,-1,0,0.29,0.00,-0.909,-0.375,9.635,-0.427,-0.732,0.244,28.16,7.64,7.73,1.2,9.7,1,1,1,1
4464646,1,0,1,0.000,0.000,0.000,0.000,1,1,68,2010,0,0,-1,0,0.29,0.00,-0.914,-0.363,9.647,-0.366,-0.671,0.183,28.19,7.65,7.73,1.0,7.7,1,1,1,1
4474646,1,0,1,0.000,0.000,0.000,0.000,1,1,67,2010,1,0,0,0,0.00,0.00,-0.897,-0.375,9.659,-0.305,-0.671,0.122,28.20,7.67,7.73,1.2,9.7,1,1,1,1
4484646,1,0,1,0.000,0.000,0.000,0.000,1,1,67,2010,0,0,0,0,0.00,0.00,-0.901,-0.361,9.638,-0.305,-0.732,0.061,28.23,7.73,7.73,1.2,9.7,1,1,1,1
4494646,1,0,1,0.000,0.000,0.000,0.000,1,1,67,2010,0,0,0,0,0.00,0.00,-0.905,-0.373,9.640,-0.427,-0.671,0.183,28.19,7.64,7.73,1.2,9.7,1,1,1,1
4504646,1,0,1,0.000,0.000,0.000,0.000,1,1,67,2010,0,0,0,0,0.00,0.00,-0.888,-0.369,9.662,-0.366,-0.732,0.183,28.23,7.67,7.73,1.2,9.7,1,1,1,1
4514646,1,0,1,0.000,0.000,0.000,0.000,1,1,67,2010,0,0,0,0,0.00,0.00,-0.903,-0.382,9.667,-0.305,-0.671,0.244,28.19,7.65,7.73,1.2,9.7,1,1,1,1
4524646,1,0,1,0.000,0.000,0.000,0.000,1,1,67,2010,0,0,0,0,0.00,0.00,-0.908,-0.386,9.653,-0.366,-0.732,0.183,28.16,7.67,7.73,1.2,9.7,1,1,1,1
4534655,1,0,1,0.000,0.000,0.000,0.000,1,1,68,2010,-1,0,-1,0,0.00,0.00,-0.895,-0.372,9.650,-0.366,-0.732,0.183,28.16,7.67,7.73,1.0,7.7,1,1,1,1
4544661,1,0,1,0.000,0.000,0.000,0.000,1,1,67,2010,1,0,0,0,0.00,0.00,-0.900,-0.360,9.649,-0.427,-0.732,0.122,28.20,7.64,7.73,1.0,7.7,1,1,1,1
4554670,1,0,1,0.000,0.000,0.000,0.000,1,1,67,2010,0,0,0,0,0.00,0.00,-0.897,-0.380,9.636,-0.366,-0.732,0.244,28.20,7.63,7.74,1.0,7.7,1,1,1,1
4564676,1,0,1,0.000,0.000,0.000,0.000,1,1,67,2010,0,0,0,0,0.00,0.00,-0.894,-0.375,9.665,-0.366,-0.671,0.183,28.20,7.65,7.73,1.2,9.7,1,1,1,1
4574677,1,0,1,0.000,0.000,0.000,0.000,1,1,67,2010,0,0,0,0,0.00,0.00,-0.903,-0.385,9.667,-0.427,-0.610,0.183,28.18,7.67,7.73,1.2,9.7,1,1,1,1
4584685,1,0,1,0.000,0.000,0.000,0.000,1,1,67,2010,0,0,0,0,0.00,0.00,-0.909,-0.370,9.643,-0.488,-0.610,0.122,28.18,7.65,7.73,1.0,7.7,1,1,1,1
4594685,1,0,1,0.000,0.000,0.000,0.000,1,1,67,2010,0,0,0,0,0.00,0.00,-0.908,-0.387,9.663,-0.366,-0.610,0.183,28.21,7.64,7.73,1.2,9.7,1,1,1,1
4604685,1,0,1,0.000,0.000,0.000,0.000,1,1,67,2010,0,0,0,0,0.00,0.00,-0.900,-0.368,9.665,-0.366,-0.793,0.061,28.18,7.67,7.73,1.2,9.7,1,1,1,1
4614685,1,0,1,0.000,0.000,0.000,0.000,1,1,68,2010,-1,0,-1,0,0.00,0.00,-0.909,-0.373,9.652,-0.305,-0.671,0.061,28.22,7.65,7.73,1.0,7.7,1,1,1,1
4624698,1,0,1,0.000,0.000,0.000,0.000,1,1,67,2010,1,0,0,0,0.00,0.00,-0.911,-0.377,9.665,-0.244,-0.671,0.183,28.16,7.65,7.72,1.5,11.6,1,1,1,1
4634707,1,0,1,0.000,0.000,0.000,0.000,1,1,67,2010,0,0,0,0,0.00,0.00,-0.912,-0.373,9.677,-0.366,-0.671,0.122,28.18,7.67,7.73,1.0,7.7,1,1,1,1
4644707,1,0,1,0.000,0.000,0.000,0.000,1,1,67,2010,0,0,0,0,0.00,0.00,-0.925,-0.378,9.658,-0.366,-0.671,0.122,28.25,7.64,7.73,1.0,7.7,1,1,1,1
4654715,1,0,1,0.000,0.000,0.000,0.000,1,1,67,2010,0,0,0,0,0.00,0.00,-0.911,-0.380,9.671,-0.427,-0.671,0.122,28.19,7.62,7.74,1.2,9.7,1,1,1,1
4664722,1,0,1,0.000,0.000,0.000,0.000,1,1,68,2010,-1,0,-1,0,0.00,0.00,-0.892,-0.369,9.676,-0.488,-0.732,0.183,28.21,7.56,7.73,1.2,9.7,1,1,1,1
4674722,1,0,1,0.000,0.000,0.000,0.000,1,1,68,2010,0,0,-1,0,-0.29,0.00,-0.900,-0.355,9.661,-0.244,-0.671,0.122,28.21,7.67,7.73,1.2,9.7,1,1,1,1
4684722,1,0,1,0.000,0.000,0.000,0.000,1,1,67,2010,1,0,0,0,-0.29,0.00,-0.911,-0.378,9.646,-0.244,-0.610,0.183,28.15,7.65,7.74,1.2,9.7,1,1,1,1
4694731,1,0,1,0.000,0.000,0.000,0.000,1,1,67,2010,0,0,0,0,-0.29,0.00,-0.880,-0.366,9.652,-0.366,-0.671,0.183,28.19,7.65,7.73,1.0,7.7,1,1,1,1
4704746,1,0,1,0.000,0.000,0.000,0.000,1,1,67,2010,0,0,0,0,-0.29,0.00,-0.894,-0.387,9.670,-0.366,-0.671,0.183,28.18,7.64,7.74,1.2,9.7,1,1,1,1
4714752,1,0,1,0.000,0.000,0.000,0.000,1,1,67,2010,0,0,0,0,-0.29,0.00,-0.920,-0.360,9.637,-0.427,-0.671,0.183,28.22,7.67,7.74,1.2,9.7,1,1,1,1
4724753,1,0,1,0.000,0.000,0.000,0.000,1,1,67,2010,0,0,0,0,0.29,0.00,-0.909,-0.378,9.655,-0.427,-0.671,0.122,28.21,7.65,7.73,1.2,9.7,1,1,1,1
4734761,1,0,1,0.000,0.000,0.000,0.000,1,1,68,2010,-1,0,-1,0,0.29,0.00,-0.900,-0.368,9.652,-0.366,-0.732,0.122,28.22,7.67,7.73,1.0,7.7,1,1,1,1
4744767,1,0,1,0.000,0.000,0.000,0.000,1,1,67,2010,1,0,0,0,0.29,0.00,-0.903,-0.375,9.659,-0.427,-0.732,0.061,28.17,7.67,7.73,1.2,9.7,1,1,1,1
4754767,1,0,1,0.000,0.000,0.000,0.000,1,1,67,2010,0,0,0,0,0.29,0.00,-0.904,-0.378,9.654,-0.305,-0.732,0.183,28.19,7.64,7.73,1.2,9.7,1,1,1,1
4764767,1,0,1,0.000,0.000,0.000,0.000,1,1,68,2010,-1,0,-1,0,0.29,0.00,-0.910,-0.380,9.652,-0.366,-0.671,0.244,28.19,7.67,7.73,1.2,9.7,1,1,1,1
4774776,1,0,1,0.000,0.000,0.000,0.000,1,1,67,2010,1,0,0,0,0.00,0.00,-0.908,-0.394,9.632,-0.427,-0.732,0.183,28.16,7.65,7.73,1.2,9.7,1,1,1,1
4784776,1,0,1,0.000,0.000,0.000,0.000,1,1,67,2010,0,0,0,0,0.00,0.00,-0.913,-0.379,9.628,-0.427,-0.671,0.122,28.22,7.67,7.73,1.0,7.7,1,1,1,1
4794776,1,0,1,0.000,0.000,0.000,0.000,1,1,67,2010,0,0,0,0,0.00,0.00,-0.890,-0.382,9.649,-0.244,-0.610,0.122,28.21,7.67,7.73,1.0,7.7,1,1,1,1
4804783,1,0,1,0.000,0.000,0.000,0.000,1,1,68,2010,-1,0,-1,0,0.00,0.00,-0.888,-0.385,9.652,-0.305,-0.610,0.183,28.19,7.67,7.73,1.2,9.7,1,1,1,1
4814783,1,0,1,0.000,0.000,0.000,0.000,1,1,68,2010,0,0,-1,0,0.00,0.00,-0.924,-0.384,9.677,-0.366,-0.610,0.244,28.19,7.67,7.73,1.2,9.7,1,1,1,1
4824783,1,0,1,0.000,0.000,0.000,0.000,1,1,67,2010,1,0,0,0,0.00,0.00,-0.897,-0.373,9.688,-0.305,-0.671,0.183,28.21,7.67,7.73,1.0,7.7,1,1,1,1
4834791,1,0,1,0.000,0.000,0.000,0.000,1,1,68,2010,-1,0,-1,0,0.00,0.00,-0.900,-0.387,9.649,-0.305,-0.671,0.183,28.21,7.67,7.73,1.0,7.7,1,1,1,1
4844798,1,0,1,0.000,0.000,0.000,0.000,1,1,68,2010,0,0,-1,0,0.00,0.00,-0.928,-0.376,9.649,-0.244,-0.671,0.122,28.18,7.67,7.73,1.0,7.7,1,1,1,1
4854806,1,0,1,0.000,0.000,0.000,0.000,1,1,67,2010,1,0,0,0,0.00,0.00,-0.911,-0.370,9.668,-0.427,-0.671,0.122,28.20,7.67,7.73,1.2,9.7,1,1,1,1
4864806,1,0,1,0.000,0.000,0.000,0.000,1,1,67,2010,0,0,0,0,0.00,0.00,-0.894,-0.378,9.657,-0.427,-0.610,0.183,28.15,7.65,7.73,1.0,7.7,1,1,1,1
4874806,1,0,1,0.000,0.000,0.000,0.000,1,1,67,2010,0,0,0,0,0.00,0.00,-0.897,-0.397,9.658,-0.305,-0.793,0.183,28.25,7.67,7.73,1.2,9.7,1,1,1,1
4884806,1,0,1,0.000,0.000,0.000,0.000,1,1,67,2010,0,0,0,0,0.00,0.00,-0.912,-0.385,9.671,-0.244,-0.793,0.183,28.16,7.67,7.73,1.2,9.7,1,1,1,1
4894813,1,0,1,0.000,0.000,0.000,0.000,1,1,67,2010,0,0,0,0,0.00,0.00,-0.900,-0.378,9.635,-0.305,-0.732,0.122,28.18,7.68,7.73,1.0,7.7,1,1,1,1
4904822,1,0,1,0.000,0.000,0.000,0.000,1,1,68,2010,-1,0,-1,0,0.00,0.00,-0.889,-0.394,9.662,-0.305,-0.610,0.183,28.20,7.67,7.73,1.0,7.7,1,1,1,1
4914830,1,0,1,0.000,0.000,0.000,0.000,1,1,67,2010,1,0,0,0,0.00,0.00,-0.904,-0.375,9.665,-0.366,-0.671,0.183,28.15,7.65,7.71,1.2,9.6,1,1,1,1
4924843,1,0,1,0.000,0.000,0.000,0.000,1,1,67,2010,0,0,0,0,0.00,0.00,-0.904,-0.407,9.650,-0.488,-0.671,0.183,28.16,7.68,7.73,1.2,9.7,1,1,1,1
4934852,1,0,1,0.000,0.000,0.000,0.000,1,1,68,2010,-1,0,-1,0,0.00,0.00,-0.918,-0.375,9.659,-0.366,-0.671,0.183,28.15,7.65,7.74,1.2,9.7,1,1,1,1
4944852,1,0,1,0.000,0.000,0.000,0.000,1,1,68,2010,0,0,-1,0,0.00,0.00,-0.903,-0.376,9.650,-0.305,-0.732,0.183,28.22,7.65,7.73,1.0,7.7,1,1,1,1
4954858,1,0,1,0.000,0.000,0.000,0.000,1,1,67,2010,1,0,0,0,0.00,0.00,-0.906,-0.376,9.683,-0.366,-0.732,0.183,28.22,7.64,7.73,1.2,9.7,1,1,1,1
4964867,1,0,1,0.000,0.000,0.000,0.000,1,1,67,2010,0,0,0,0,0.00,0.00,-0.917,-0.357,9.674,-0.366,-0.732,0.183,28.21,7.65,7.73,1.2,9.7,1,1,1,1
4974867,1,0,1,0.000,0.000,0.000,0.000,1,1,67,2010,0,0,0,0,0.00,0.00,-0.889,-0.369,9.651,-0.305,-0.732,0.244,28.19,7.64,7.73,1.2,9.7,1,1,1,1
4984867,1,0,1,0.000,0.000,0.000,0.000,1,1,67,2010,0,0,0,0,0.00,0.00,-0.896,-0.382,9.664,-0.305,-0.732,0.366,28.18,7.64,7.73,1.0,7.7,1,1,1,1
4994874,1,0,1,0.000,0.000,0.000,0.000,1,1,67,2010,0,0,0,0,0.00,0.00,-0.904,-0.376,9.667,-0.305,-0.732,0.305,28.17,7.64,7.73,1.2,9.7,1,1,1,1
5004874,1,0,1,0.000,0.000,0.000,0.000,1,1,67,2010,0,0,0,0,0.00,0.00,-0.922,-0.378,9.658,-0.305,-0.732,0.183,28.20,7.65,7.73,1.0,7.7,1,1,1,1
5014882,1,0,1,0.000,0.000,0.000,0.000,1,1,67,2010,0,0,0,0,0.00,0.00,-0.908,-0.359,9.667,-0.488,-0.610,0.183,28.22,7.65,7.73,1.2,9.7,1,1,1,1
5024882,1,0,1,0.000,0.000,0.000,0.000,1,1,68,2010,-1,0,-1,0,-0.29,0.00,-0.890,-0.381,9.664,-0.427,-0.671,0.183,28.19,7.67,7.74,1.0,7.7,1,1,1,1
5034889,1,0,1,0.000,0.000,0.000,0.000,1,1,68,2010,0,0,-1,0,-0.29,0.00,-0.906,-0.363,9.656,-0.366,-0.671,0.122,28.22,7.65,7.73,1.0,7.7,1,1,1,1
5044889,1,0,1,0.000,0.000,0.000,0.000,1,1,67,2010,1,0,0,0,-0.29,0.00,-0.895,-0.360,9.658,-0.366,-0.671,0.183,28.18,7.67,7.73,1.0,7.7,1,1,1,1
5054889,1,0,1,0.000,0.000,0.000,0.000,1,1,67,2010,0,0,0,0,-0.29,0.00,-0.894,-0.365,9.646,-0.427,-0.671,0.183,28.21,7.65,7.73,1.2,9.7,1,1,1,1
5064897,1,0,1,0.000,0.000,0.000,0.000,1,1,67,2010,0,0,0,0,-0.29,0.00,-0.901,-0.367,9.649,-0.305,-0.610,0.183,28.21,7.65,7.73,1.2,9.7,1,1,1,1
5074904,1,0,1,0.000,0.000,0.000,0.000,1,1,67,2010,0,0,0,0,0.29,0.00,-0.887,-0.368,9.661,-0.305,-0.549,0.122,28.19,7.65,7.73,1.2,9.7,1,1,1,1
5084904,1,0,1,0.000,0.000,0.000,0.000,1,1,67,2010,0,0,0,0,0.29,0.00,-0.885,-0.378,9.661,-0.366,-0.732,0.183,28.19,7.67,7.73,1.2,9.7,1,1,1,1
5094913,1,0,1,0.000,0.000,0.000,0.000,1,1,67,2010,0,0,0,0,0.29,0.00,-0.891,-0.378,9.668,-0.366,-0.671,0.183,28.17,7.64,7.73,1.2,9.7,1,1,1,1
5104913,1,0,1,0.000,0.000,0.000,0.000,1,1,68,2010,-1,0,-1,0,0.29,0.00,-0.906,-0.367,9.643,-0.305,-0.671,0.183,28.17,7.67,7.73,1.2,9.7,1,1,1,1
5114919,1,0,1,0.000,0.000,0.000,0.000,1,1,67,2010,1,0,0,0,0.29,0.00,-0.903,-0.363,9.662,-0.427,-0.671,0.183,28.17,7.67,7.73,1.2,9.7,1,1,1,1
5124928,1,0,1,0.000,0.000,0.000,0.000,1,1,67,2010,0,0,0,0,0.00,0.00,-0.900,-0.354,9.649,-0.427,-0.732,0.183,28.23,7.65,7.73,1.2,9.7,1,1,1,1
5134928,1,0,1,0.000,0.000,0.000,0.000,1,1,67,2010,0,0,0,0,0.00,0.00,-0.887,-0.371,9.642,-0.305,-0.671,0.122,28.19,7.65,7.73,1.2,9.7,1,1,1,1
5144928,1,0,1,0.000,0.000,0.000,0.000,1,1,67,2010,0,0,0,0,0.00,0.00,-0.873,-0.375,9.629,-0.305,-0.671,0.122,28.20,7.65,7.73,1.2,9.7,1,1,1,1
5154934,1,0,1,0.000,0.000,0.000,0.000,1,1,67,2010,0,0,0,0,0.00,0.00,-0.908,-0.362,9.642,-0.305,-0.671,0.244,28.22,7.65,7.73,1.2,9.7,1,1,1,1
5164934,1,0,1,0.000,0.000,0.000,0.000,1,1,67,2010,0,0,0,0,0.00,0.00,-0.917,-0.379,9.679,-0.366,-0.732,0.244,28.21,7.67,7.73,1.0,7.7,1,1,1,1
5174934,1,0,1,0.000,0.000,0.000,0.000,1,1,68,2010,-1,0,-1,0,-0.29,0.00,-0.900,-0.390,9.652,-0.366,-0.732,0.122,28.21,7.65,7.73,1.2,9.7,1,1,1,1
5184934,1,0,1,0.000,0.000,0.000,0.000,1,1,67,2010,1,0,0,0,-0.29,0.00,-0.918,-0.386,9.641,-0.366,-0.671,0.183,28.21,7.65,7.73,1.2,9.7,1,1,1,1
5194943,1,0,1,0.000,0.000,0.000,0.000,1,1,68,2010,-1,0,-1,0,-0.29,0.00,-0.903,-0.374,9.655,-0.305,-0.732,0.183,28.18,7.67,7.74,1.2,9.7,1,1,1,1
5204948,1,0,1,0.000,0.000,0.000,0.000,1,1,67,2010,1,0,0,0,-0.29,0.00,-0.906,-0.364,9.655,-0.366,-0.793,0.183,28.16,7.64,7.72,1.2,9.7,1,1,1,1
5214952,1,0,1,0.000,0.000,0.000,0.000,1,1,67,2010,0,0,0,0,-0.29,0.00,-0.906,-0.364,9.655,-0.366,-0.793,0.183,28.19,7.67,7.73,1.2,9.7,1,1,1,1
5224952,1,0,1,0.000,0.000,0.000,0.000,1,1,67,2010,0,0,0,0,0.29,0.00,-0.888,-0.369,9.668,-0.366,-0.732,0.183,28.19,7.65,7.73,1.0,7.7,1,1,1,1
5234959,1,0,1,0.000,0.000,0.000,0.000,1,1,67,2010,0,0,0,0,0.29,0.00,-0.885,-0.382,9.679,-0.366,-0.671,0.244,28.19,7.67,7.74,1.0,7.7,1,1,1,1
5244959,1,0,1,0.000,0.000,0.000,0.000,1,1,67,2010,0,0,0,0,0.29,0.00,-0.910,-0.361,9.652,-0.305,-0.671,0.183,28.20,7.67,7.73,1.0,7.7,1,1,1,1
5254959,1,0,1,0.000,0.000,0.000,0.000,1,1,68,2010,-1,0,-1,0,0.29,0.00,-0.913,-0.369,9.638,-0.244,-0.732,0.183,28.18,7.67,7.73,1.2,9.7,1,1,1,1
5264959,1,0,1,0.000,0.000,0.000,0.000,1,1,68,2010,0,0,-1,0,0.29,0.00,-0.882,-0.372,9.655,-0.366,-0.732,0.183,28.17,7.67,7.73,1.2,9.7,1,1,1,1
5274967,1,0,1,0.000,0.000,0.000,0.000,1,1,68,2010,0,0,-1,0,-0.29,0.00,-0.903,-0.370,9.655,-0.427,-0.732,0.183,28.18,7.67,7.74,1.2,9.7,1,1,1,1
5284974,1,0,1,0.000,0.000,0.000,0.000,1,1,67,2010,1,0,0,0,-0.29,0.00,-0.904,-0.361,9.648,-0.427,-0.671,0.183,28.19,7.64,7.73,1.2,9.7,1,1,1,1
5294974,1,0,1,0.000,0.000,0.000,0.000,1,1,67,2010,0,0,0,0,-0.29,0.00,-0.904,-0.375,9.671,-0.366,-0.732,0.183,28.19,7.67,7.73,1.0,7.7,1,1,1,1
5304982,1,0,1,0.000,0.000,0.000,0.000,1,1,67,2010,0,0,0,0,-0.29,0.00,-0.904,-0.386,9.659,-0.427,-0.732,0.183,28.18,7.65,7.73,1.0,7.7,1,1,1,1
5314989,1,0,1,0.000,0.000,0.000,0.000,1,1,68,2010,-1,0,-1,0,-0.29,0.00,-0.900,-0.372,9.650,-0.366,-0.732,0.183,28.21,7.64,7.73,1.2,9.7,1,1,1,1
5324995,1,0,1,0.000,0.000,0.000,0.000,1,1,67,2010,1,0,0,0,0.29,0.00,-0.904,-0.376,9.660,-0.366,-0.732,0.122,28.19,7.65,7.72,1.0,7.7,1,1,1,1
5335004,1,0,1,0.000,0.000,0.000,0.000,1,1,68,2010,-1,0,-1,0,0.29,0.00,-0.894,-0.375,9.653,-0.366,-0.793,0.122,28.17,7.67,7.74,1.2,9.7,1,1,1,1
5345004,1,0,1,0.000,0.000,0.000,0.000,1,1,67,2010,1,0,0,0,0.29,0.00,-0.883,-0.366,9.655,-0.366,-0.671,0.183,28.20,7.67,7.74,1.2,9.7,1,1,1,1
5355004,1,0,1,0.000,0.000,0.000,0.000,1,1,67,2010,0,0,0,0,0.29,0.00,-0.901,-0.366,9.652,-0.366,-0.610,0.183,28.22,7.64,7.73,1.0,7.7,1,1,1,1
5365004,1,0,1,0.000,0.000,0.000,0.000,1,1,68,2010,-1,0,-1,0,0.29,0.00,-0.906,-0.376,9.648,-0.366,-0.732,0.183,28.22,7.65,7.73,1.2,9.7,1,1,1,1
5375004,1,0,1,0.000,0.000,0.000,0.000,1,1,67,2010,1,0,0,0,0.00,0.00,-0.899,-0.369,9.663,-0.305,-0.732,0.183,28.18,7.65,7.73,1.2,9.7,1,1,1,1
5385004,1,0,1,0.000,0.000,0.000,0.000,1,1,67,2010,0,0,0,0,0.00,0.00,-0.910,-0.375,9.654,-0.305,-0.671,0.183,28.23,7.65,7.73,1.0,7.7,1,1,1,1
5395012,1,0,1,0.000,0.000,0.000,0.000,1,1,67,2010,0,0,0,0,0.00,0.00,-0.916,-0.379,9.655,-0.305,-0.549,0.183,28.21,7.64,7.73,1.0,7.7,1,1,1,1
5405012,1,0,1,0.000,0.000,0.000,0.000,1,1,68,2010,-1,0,-1,0,0.00,0.00,-0.896,-0.384,9.680,-0.366,-0.732,0.183,28.22,7.67,7.73,1.0,7.7,1,1,1,1
5415019,1,0,1,0.000,0.000,0.000,0.000,1,1,68,2010,0,0,-1,0,0.00,0.00,-0.924,-0.379,9.682,-0.305,-0.732,0.122,28.20,7.63,7.73,1.0,7.7,1,1,1,1
5425028,1,0,1,0.000,0.000,0.000,0.000,1,1,67,2010,1,0,0,0,0.00,0.00,-0.903,-0.377,9.662,-0.305,-0.793,0.122,28.22,7.67,7.73,1.0,7.7,1,1,1,1
5435034,1,0,1,0.000,0.000,0.000,0.000,1,1,68,2010,-1,0,-1,0,0.00,0.00,-0.898,-0.384,9.650,-0.305,-0.793,0.122,28.23,7.65,7.74,1.0,7.7,1,1,1,1
5445043,1,0,1,0.000,0.000,0.000,0.000,1,1,67,2010,1,0,0,0,0.00,0.00,-0.908,-0.366,9.666,-0.427,-0.732,0.122,28.25,7.67,7.73,1.2,9.7,1,1,1,1
5455043,1,0,1,0.000,0.000,0.000,0.000,1,1,67,2010,0,0,0,0,0.00,0.00,-0.911,-0.371,9.662,-0.427,-0.732,0.122,28.20,7.65,7.73,1.2,9.7,1,1,1,1
5465043,1,0,1,0.000,0.000,0.000,0.000,1,1,68,2010,-1,0,-1,0,0.00,0.00,-0.909,-0.369,9.665,-0.427,-0.671,0.183,28.19,7.65,7.73,1.2,9.7,1,1,1,1
5475043,1,0,1,0.000,0.000,0.000,0.000,1,1,68,2010,0,0,-1,0,-0.29,0.00,-0.890,-0.376,9.631,-0.366,-0.732,0.122,28.23,7.65,7.73,1.0,7.7,1,1,1,1
5485043,1,0,1,0.000,0.000,0.000,0.000,1,1,67,2010,1,0,0,0,-0.29,0.00,-0.888,-0.379,9.632,-0.366,-0.671,0.183,28.22,7.67,7.74,1.0,7.7,1,1,1,1
5495050,1,0,1,0.000,0.000,0.000,0.000,1,1,67,2010,0,0,0,0,-0.29,0.00,-0.914,-0.376,9.654,-0.305,-0.732,0.183,28.19,7.67,7.73,1.2,9.7,1,1,1,1
5505050,1,0,1,0.000,0.000,0.000,0.000,1,1,68,2010,-1,0,-1,0,-0.29,0.00,-0.918,-0.398,9.645,-0.305,-0.732,0.183,28.19,7.65,7.74,1.0,7.7,1,1,1,1
5515050,1,0,1,0.000,0.000,0.000,0.000,1,1,67,2010,1,0,0,0,-0.29,0.00,-0.907,-0.393,9.639,-0.305,-0.610,0.244,28.19,7.67,7.74,1.2,9.7,1,1,1,1
5525050,1,0,1,0.000,0.000,0.000,0.000,1,1,67,2010,0,0,0,0,0.29,0.00,-0.903,-0.354,9.631,-0.305,-0.610,0.183,28.21,7.64,7.73,1.2,9.7,1,1,1,1
5535050,1,0,1,0.000,0.000,0.000,0.000,1,1,67,2010,0,0,0,0,0.29,0.00,-0.903,-0.378,9.647,-0.366,-0.793,0.183,28.19,7.67,7.73,1.2,9.7,1,1,1,1
5545050,1,0,1,0.000,0.000,0.000,0.000,1,1,67,2010,0,0,0,0,0.29,0.00,-0.890,-0.385,9.665,-0.366,-0.732,0.183,28.21,7.67,7.74,1.0,7.7,1,1,1,1
5555058,1,0,1,0.000,0.000,0.000,0.000,1,1,67,2010,0,0,0,0,0.29,0.00,-0.904,-0.370,9.659,-0.366,-0.732,0.183,28.20,7.67,7.73,1.2,9.7,1,1,1,1
5565058,1,0,1,0.000,0.000,0.000,0.000,1,1,67,2010,0,0,0,0,0.29,0.00,-0.893,-0.362,9.641,-0.427,-0.671,0.183,28.19,7.64,7.74,1.0,7.7,1,1,1,1
5575065,1,0,1,0.000,0.000,0.000,0.000,1,1,68,2010,-1,0,-1,0,-0.29,0.00,-0.907,-0.372,9.678,-0.427,-0.732,0.122,28.24,7.65,7.73,1.0,7.7,1,1,1,1
5585065,1,0,1,0.000,0.000,0.000,0.000,1,1,68,2010,0,0,-1,0,-0.29,0.00,-0.916,-0.381,9.670,-0.488,-0.671,0.183,28.14,7.65,7.73,1.0,7.7,1,1,1,1
5595073,1,0,1,0.000,0.000,0.000,0.000,1,1,67,2010,1,0,0,0,-0.29,0.00,-0.886,-0.370,9.668,-0.427,-0.732,0.183,28.17,7.67,7.73,1.0,7.7,1,1,1,1
5605080,1,0,1,0.000,0.000,0.000,0.000,1,1,68,2010,-1,0,-1,0,-0.29,0.00,-0.887,-0.333,9.653,-0.366,-0.732,0.122,28.21,7.65,7.73,1.2,9.7,1,1,1,1
5615088,1,0,1,0.000,0.000,0.000,0.000,1,1,68,2010,0,0,-1,0,-0.29,0.00,-0.906,-0.366,9.649,-0.305,-0.671,0.183,28.18,7.64,7.73,1.2,9.7,1,1,1,1
5625095,1,0,1,0.000,0.000,0.000,0.000,1,1,68,2010,0,0,-1,0,0.00,0.00,-0.922,-0.382,9.654,-0.366,-0.732,0.305,28.19,7.67,7.72,1.2,9.6,1,1,1,1
5635095,1,0,1,0.000,0.000,0.000,0.000,1,1,68,2010,0,0,-1,0,0.00,0.00,-0.896,-0.365,9.656,-0.427,-0.732,0.122,28.21,7.67,7.73,1.0,7.7,1,1,1,1
5645104,1,0,1,0.000,0.000,0.000,0.000,1,1,68,2010,0,0,-1,0,0.00,0.00,-0.900,-0.372,9.665,-0.305,-0.671,0.244,28.21,7.65,7.73,1.2,9.7,1,1,1,1
5655104,1,0,1,0.000,0.000,0.000,0.000,1,1,67,2010,1,0,0,0,0.00,0.00,-0.897,-0.372,9.668,-0.305,-0.671,0.244,28.21,7.67,7.73,1.0,7.7,1,1,1,1
5665104,1,0,1,0.000,0.000,0.000,0.000,1,1,67,2010,0,0,0,0,0.00,0.00,-0.877,-0.366,9.640,-0.305,-0.671,0.183,28.21,7.65,7.73,1.2,9.7,1,1,1,1
5675104,1,0,1,0.000,0.000,0.000,0.000,1,1,67,2010,0,0,0,0,0.29,0.00,-0.885,-0.360,9.639,-0.427,-0.671,0.183,28.18,7.65,7.73,1.2,9.7,1,1,1,1
5685104,1,0,1,0.000,0.000,0.000,0.000,1,1,67,2010,0,0,0,0,0.29,0.00,-0.916,-0.373,9.672,-0.366,-0.732,0.122,28.19,7.65,7.73,1.0,7.7,1,1,1,1
5695110,1,0,1,0.000,0.000,0.000,0.000,1,1,68,2010,-1,0,-1,0,0.29,0.00,-0.891,-0.391,9.659,-0.366,-0.671,0.183,28.20,7.67,7.73,1.2,9.7,1,1,1,1
5705119,1,0,1,0.000,0.000,0.000,0.000,1,1,68,2010,0,0,-1,0,0.29,0.00,-0.894,-0.353,9.631,-0.366,-0.732,0.244,28.22,7.65,7.73,1.2,9.7,1,1,1,1
5715119,1,0,1,0.000,0.000,0.000,0.000,1,1,67,2010,1,0,0,0,0.29,0.00,-0.904,-0.354,9.650,-0.366,-0.671,0.183,28.25,7.65,7.73,1.2,9.7,1,1,1,1
5725119,1,0,1,0.000,0.000,0.000,0.000,1,1,67,2010,0,0,0,0,0.00,0.00,-0.903,-0.384,9.649,-0.427,-0.671,0.244,28.20,7.64,7.73,1.2,9.7,1,1,1,1
5735126,1,0,1,0.000,0.000,0.000,0.000,1,1,68,2010,-1,0,-1,0,0.00,0.00,-0.893,-0.382,9.648,-0.427,-0.732,0.244,28.22,7.65,7.73,1.2,9.7,1,1,1,1
5745126,1,0,1,0.000,0.000,0.000,0.000,1,1,67,2010,1,0,0,0,0.00,0.00,-0.901,-0.386,9.668,-0.305,-0.732,0.244,28.17,7.65,7.73,1.0,7.7,1,1,1,1
5755126,1,0,1,0.000,0.000,0.000,0.000,1,1,67,2010,0,0,0,0,0.00,0.00,-0.912,-0.374,9.662,-0.366,-0.671,0.305,28.18,7.67,7.73,1.2,9.7,1,1,1,1
5765134,1,0,1,0.000,0.000,0.000,0.000,1,1,67,2010,0,0,0,0,0.00,0.00,-0.922,-0.393,9.660,-0.427,-0.671,0.183,28.21,7.65,7.74,1.0,7.7,1,1,1,1
5775141,1,0,1,0.000,0.000,0.000,0.000,1,1,68,2010,-1,0,-1,0,-0.29,0.00,-0.915,-0.390,9.670,-0.427,-0.671,0.122,28.21,7.67,7.73,1.2,9.7,1,1,1,1
5785149,1,0,1,0.000,0.000,0.000,0.000,1,1,67,2010,1,0,0,0,-0.29,0.00,-0.900,-0.389,9.666,-0.366,-0.671,0.122,28.22,7.65,7.73,1.2,9.7,1,1,1,1
5795149,1,0,1,0.000,0.000,0.000,0.000,1,1,68,2010,-1,0,-1,0,-0.29,0.00,-0.886,-0.387,9.643,-0.366,-0.671,0.122,28.19,7.65,7.73,1.2,9.7,1,1,1,1
5805149,1,0,1,0.000,0.000,0.000,0.000,1,1,68,2010,0,0,-1,0,-0.29,0.00,-0.897,-0.369,9.665,-0.366,-0.732,0.183,28.18,7.67,7.73,1.2,9.7,1,1,1,1
5815156,1,0,1,0.000,0.000,0.000,0.000,1,1,67,2010,1,0,0,0,-0.29,0.00,-0.897,-0.359,9.660,-0.366,-0.793,0.244,28.18,7.65,7.73,1.0,7.7,1,1,1,1
5825156,1,0,1,0.000,0.000,0.000,0.000,1,1,67,2010,0,0,0,0,0.29,0.00,-0.900,-0.372,9.647,-0.244,-0.732,0.183,28.19,7.65,7.73,1.2,9.7,1,1,1,1
5835156,1,0,1,0.000,0.000,0.000,0.000,1,1,67,2010,0,0,0,0,0.29,0.00,-0.922,-0.387,9.680,-0.366,-0.671,0.183,28.17,7.65,7.73,1.2,9.7,1,1,1,1
5845156,1,0,1,0.000,0.000,0.000,0.000,1,1,67,2010,0,0,0,0,0.29,0.00,-0.912,-0.369,9.676,-0.305,-0.732,0.183,28.22,7.65,7.73,1.2,9.7,1,1,1,1
5855156,1,0,1,0.000,0.000,0.000,0.000,1,1,67,2010,0,0,0,0,0.29,0.00,-0.898,-0.370,9.670,-0.305,-0.732,0.183,28.18,7.65,7.73,1.0,7.7,1,1,1,1
5865156,1,0,1,0.000,0.000,0.000,0.000,1,1,67,2010,0,0,0,0,0.29,0.00,-0.921,-0.366,9.648,-0.427,-0.671,0.183,28.18,7.67,7.73,1.0,7.7,1,1,1,1
5875164,1,0,1,0.000,0.000,0.000,0.000,1,1,68,2010,-1,0,-1,0,-0.29,0.00,-0.902,-0.376,9.646,-0.366,-0.732,0.183,28.22,7.65,7.73,1.0,7.7,1,1,1,1
5885171,1,0,1,0.000,0.000,0.000,0.000,1,1,67,2010,1,0,0,0,-0.29,0.00,-0.894,-0.369,9.667,-0.305,-0.732,0.183,28.21,7.67,7.73,1.0,7.7,1,1,1,1
5895179,1,0,1,0.000,0.000,0.000,0.000,1,1,67,2010,0,0,0,0,-0.29,0.00,-0.893,-0.390,9.652,-0.305,-0.732,0.183,28.20,7.65,7.73,1.2,9.7,1,1,1,1
5905186,1,0,1,0.000,0.000,0.000,0.000,1,1,67,2010,0,0,0,0,-0.29,0.00,-0.914,-0.385,9.659,-0.488,-0.671,0.183,28.21,7.67,7.73,1.2,9.7,1,1,1,1
5915186,1,0,1,0.000,0.000,0.000,0.000,1,1,67,2010,0,0,0,0,-0.29,0.00,-0.912,-0.376,9.668,-0.366,-0.610,0.183,28.21,7.65,7.72,1.0,7.7,1,1,1,1
5925186,1,0,1,0.000,0.000,0.000,0.000,1,1,67,2010,0,0,0,0,0.29,0.00,-0.894,-0.378,9.656,-0.366,-0.671,0.183,28.17,7.67,7.73,1.2,9.7,1,1,1,1
5935186,1,0,1,0.000,0.000,0.000,0.000,1,1,68,2010,-1,0,-1,0,0.29,0.00,-0.885,-0.370,9.646,-0.366,-0.671,0.183,28.20,7.69,7.73,1.2,9.7,1,1,1,1
5945195,1,0,1,0.000,0.000,0.000,0.000,1,1,67,2010,1,0,0,0,0.29,0.00,-0.896,-0.354,9.664,-0.427,-0.671,0.183,28.19,7.67,7.73,1.2,9.7,1,1,1,1
5955201,1,0,1,0.000,0.000,0.000,0.000,1,1,67,2010,0,0,0,0,0.29,0.00,-0.886,-0.371,9.653,-0.366,-0.732,0.183,28.22,7.67,7.73,1.2,9.7,1,1,1,1
5965210,1,0,1,0.000,0.000,0.000,0.000,1,1,68,2010,-1,0,-1,0,0.29,0.00,-0.881,-0.369,9.652,-0.427,-0.671,0.183,28.21,7.67,7.73,1.2,9.7,1,1,1,1
5975210,1,0,1,0.000,0.000,0.000,0.000,1,1,67,2010,1,0,0,0,0.00,0.00,-0.887,-0.366,9.643,-0.427,-0.671,0.183,28.18,7.63,7.73,1.0,7.7,1,1,1,1
5985217,1,0,1,0.000,0.000,0.000,0.000,1,1,67,2010,0,0,0,0,0.00,0.00,-0.899,-0.369,9.663,-0.366,-0.671,0.244,28.23,7.65,7.73,1.2,9.7,1,1,1,1
5995225,1,0,1,0.000,0.000,0.000,0.000,1,1,68,2010,-1,0,-1,0,0.00,0.00,-0.905,-0.365,9.670,-0.366,-0.671,0.244,28.17,7.65,7.73,1.2,9.7,1,1,1,1
6005232,1,0,1,0.000,0.000,0.000,0.000,1,1,67,2010,1,0,0,0,0.00,0.00,-0.915,-0.377,9.664,-0.366,-0.671,0.244,28.22,7.67,7.73,1.0,7.7,1,1,1,1
6015232,1,0,1,0.000,0.000,0.000,0.000,1,1,67,2010,0,0,0,0,0.00,0.00,-0.910,-0.383,9.676,-0.427,-0.671,0.244,28.19,7.67,7.73,1.2,9.7,1,1,1,1
6025240,1,0,1,0.000,0.000,0.000,0.000,1,1,67,2010,0,0,0,0,0.00,0.00,-0.902,-0.365,9.643,-0.305,-0.732,0.183,28.19,7.65,7.73,1.0,7.7,1,1,1,1
6035247,1,0,1,0.000,0.000,0.000,0.000,1,1,67,2010,0,0,0,0,0.00,0.00,-0.880,-0.373,9.626,-0.366,-0.671,0.183,28.19,7.65,7.73,1.0,7.7,1,1,1,1
6045255,1,0,1,0.000,0.000,0.000,0.000,1,1,67,2010,0,0,0,0,0.00,0.00,-0.910,-0.384,9.647,-0.305,-0.732,0.183,28.19,7.64,7.73,1.0,7.7,1,1,1,1
6055262,1,0,1,0.000,0.000,0.000,0.000,1,1,67,2010,0,0,0,0,0.00,0.00,-0.924,-0.380,9.659,-0.366,-0.732,0.122,28.19,7.67,7.73,1.2,9.7,1,1,1,1
6065262,1,0,1,0.000,0.000,0.000,0.000,1,1,68,2010,-1,0,-1,0,0.00,0.00,-0.892,-0.360,9.662,-0.427,-0.732,0.183,28.20,7.67,7.73,1.0,7.7,1,1,1,1
6075262,1,0,1,0.000,0.000,0.000,0.000,1,1,68,2010,0,0,-1,0,-0.29,0.00,-0.900,-0.375,9.655,-0.427,-0.671,0.183,28.16,7.67,7.73,1.2,9.7,1,1,1,1
6085270,1,0,1,0.000,0.000,0.000,0.000,1,1,67,2010,1,0,0,0,-0.29,0.00,-0.895,-0.392,9.658,-0.305,-0.732,0.122,28.23,7.67,7.73,1.2,9.7,1,1,1,1
6095270,1,0,1,0.000,0.000,0.000,0.000,1,1,67,2010,0,0,0,0,-0.29,0.00,-0.898,-0.370,9.638,-0.366,-0.732,0.244,28.20,7.67,7.73,1.0,7.7,1,1,1,1
6105270,1,0,1,0.000,0.000,0.000,0.000,1,1,67,2010,0,0,0,0,-0.29,0.00,-0.896,-0.375,9.649,-0.427,-0.732,0.183,28.22,7.67,7.73,1.2,9.7,1,1,1,1
6115270,1,0,1,0.000,0.000,0.000,0.000,1,1,67,2010,0,0,0,0,-0.29,0.00,-0.907,-0.385,9.649,-0.366,-0.732,0.122,28.19,7.65,7.73,1.2,9.7,1,1,1,1
6125271,1,0,1,0.000,0.000,0.000,0.000,1,1,67,2010,0,0,0,0,0.29,0.00,-0.906,-0.368,9.662,-0.366,-0.732,0.183,28.20,7.64,7.73,1.2,9.7,1,1,1,1
6135277,1,0,1,0.000,0.000,0.000,0.000,1,1,67,2010,0,0,0,0,0.29,0.00,-0.924,-0.360,9.618,-0.305,-0.732,0.183,28.18,7.65,7.73,1.2,9.7,1,1,1,1
6145277,1,0,1,0.000,0.000,0.000,0.000,1,1,67,2010,0,0,0,0,0.29,0.00,-0.924,-0.360,9.618,-0.305,-0.732,0.183,28.21,7.65,7.73,1.0,7.7,1,1,1,1
6155277,1,0,1,0.000,0.000,0.000,0.000,1,1,67,2010,0,0,0,0,0.29,0.00,-0.912,-0.378,9.640,-0.427,-0.671,0.183,28.17,7.67,7.73,1.2,9.7,1,1,1,1
6165277,1,0,1,0.000,0.000,0.000,0.000,1,1,68,2010,-1,0,-1,0,0.29,0.00,-0.900,-0.376,9.659,-0.427,-0.671,0.183,28.21,7.67,7.73,1.2,9.7,1,1,1,1
6175277,1,0,1,0.000,0.000,0.000,0.000,1,1,67,2010,1,0,0,0,0.00,0.00,-0.889,-0.387,9.661,-0.366,-0.610,0.244,28.16,7.65,7.73,1.2,9.7,1,1,1,1
6185286,1,0,1,0.000,0.000,0.000,0.000,1,1,67,2010,0,0,0,0,0.00,0.00,-0.895,-0.378,9.665,-0.305,-0.671,0.183,28.19,7.67,7.73,1.2,9.7,1,1,1,1
6195286,1,0,1,0.000,0.000,0.000,0.000,1,1,67,2010,0,0,0,0,0.00,0.00,-0.895,-0.382,9.637,-0.366,-0.732,0.183,28.19,7.64,7.73,1.2,9.7,1,1,1,1
6205287,1,0,1,0.000,0.000,0.000,0.000,1,1,67,2010,0,0,0,0,0.00,0.00,-0.903,-0.383,9.645,-0.366,-0.732,0.183,28.17,7.65,7.72,1.0,7.7,1,1,1,1
6215292,1,0,1,0.000,0.000,0.000,0.000,1,1,67,2010,0,0,0,0,0.00,0.00,-0.889,-0.362,9.646,-0.366,-0.671,0.122,28.21,7.67,7.73,1.2,9.7,1,1,1,1
6225293,1,0,1,0.000,0.000,0.000,0.000,1,1,68,2010,-1,0,-1,0,-0.29,0.00,-0.879,-0.378,9.662,-0.427,-0.610,0.183,28.21,7.65,7.73,1.0,7.7,1,1,1,1
6235308,1,0,1,0.000,0.000,0.000,0.000,1,1,68,2010,0,0,-1,0,-0.29,0.00,-0.893,-0.378,9.659,-0.305,-0.671,0.183,28.21,7.67,7.73,1.0,7.7,1,1,1,1
6245316,1,0,1,0.000,0.000,0.000,0.000,1,1,67,2010,1,0,0,0,-0.29,0.00,-0.912,-0.372,9.653,-0.427,-0.732,0.244,28.19,7.68,7.73,1.0,7.7,1,1,1,1
6255316,1,0,1,0.000,0.000,0.000,0.000,1,1,67,2010,0,0,0,0,-0.29,0.00,-0.914,-0.381,9.649,-0.427,-0.671,0.183,28.19,7.65,7.73,1.0,7.7,1,1,1,1
6265316,1,0,1,0.000,0.000,0.000,0.000,1,1,67,2010,0,0,0,0,-0.29,0.00,-0.897,-0.363,9.665,-0.305,-0.671,0.122,28.19,7.65,7.73,1.2,9.7,1,1,1,1
6275316,1,0,1,0.000,0.000,0.000,0.000,1,1,67,2010,0,0,0,0,0.29,0.00,-0.902,-0.361,9.652,-0.305,-0.732,0.244,28.21,7.68,7.73,1.2,9.7,1,1,1,1
6285323,1,0,1,0.000,0.000,0.000,0.000,1,1,67,2010,0,0,0,0,0.29,0.00,-0.910,-0.374,9.641,-0.244,-0.610,0.183,28.19,7.67,7.73,1.0,7.7,1,1,1,1
6295323,1,0,1,0.000,0.000,0.000,0.000,1,1,68,2010,-1,0,-1,0,0.29,0.00,-0.914,-0.382,9.633,-0.244,-0.732,0.183,28.20,7.67,7.73,1.0,7.7,1,1,1,1
6305323,1,0,1,0.000,0.000,0.000,0.000,1,1,68,2010,0,0,-1,0,0.29,0.00,-0.903,-0.365,9.659,-0.488,-0.671,0.183,28.20,7.64,7.73,1.2,9.7,1,1,1,1
6315323,1,0,1,0.000,0.000,0.000,0.000,1,1,68,2010,0,0,-1,0,0.29,0.00,-0.892,-0.373,9.656,-0.427,-0.549,0.122,28.20,7.67,7.74,1.0,7.7,1,1,1,1
6325326,1,1,1,0.008,-0.050,0.100,0.000,2,1,67,2010,1,0,0,0,0.00,0.00,-0.892,-0.379,9.648,-0.244,-0.671,0.183,28.20,7.73,7.72,1.0,7.7,1,1,1,1
6335338,1,1,1,0.008,-0.050,0.100,0.000,2,1,67,2010,0,0,0,0,0.00,0.00,-0.888,-0.360,9.664,-0.366,-0.610,0.244,28.20,7.63,7.72,32.0,247.2,1,1,1,1
6345346,1,1,1,0.008,-0.050,0.100,0.000,2,1,67,2010,0,0,0,0,0.00,0.00,-0.888,-0.376,9.665,-0.427,-0.671,0.122,28.21,7.63,7.71,32.2,248.8,1,1,1,1
6355346,1,1,1,0.008,-0.050,0.100,0.000,2,1,67,2010,0,0,0,0,0.00,0.00,-0.907,-0.388,9.661,-0.305,-0.610,0.183,28.18,7.63,7.72,32.2,249.0,1,1,1,1
6365353,1,1,1,0.008,-0.050,0.100,0.000,2,1,67,2010,0,0,0,0,0.00,0.00,-0.922,-0.382,9.660,-0.366,-0.671,0.183,28.21,7.63,7.72,32.0,246.9,1,1,1,1
6375362,1,1,1,0.008,-0.050,0.100,0.000,2,1,68,2010,-1,0,-1,0,-0.29,0.00,-0.906,-0.382,9.653,-0.305,-0.671,0.183,28.21,7.62,7.72,32.0,246.9,1,1,1,1
6385368,1,1,1,0.008,-0.050,0.100,0.000,2,1,68,2010,0,0,-1,0,-0.29,0.00,-0.895,-0.362,9.659,-0.366,-0.671,0.183,28.21,7.63,7.72,32.2,249.0,1,1,1,1
6395377,1,1,1,0.008,-0.050,0.100,0.000,2,1,67,2010,1,0,0,0,-0.29,0.00,-0.888,-0.385,9.665,-0.488,-0.610,0.244,28.20,7.63,7.72,32.0,247.2,1,1,1,1
6405377,1,1,1,0.008,-0.050,0.100,0.000,2,1,67,2010,0,0,0,0,-0.29,0.00,-0.894,-0.365,9.667,-0.427,-0.671,0.183,28.15,7.71,7.72,31.8,245.2,1,1,1,1
6415377,1,1,1,0.008,-0.050,0.100,0.000,2,1,67,2010,0,0,0,0,-0.29,0.00,-0.915,-0.357,9.653,-0.366,-0.732,0.122,28.27,7.63,7.71,31.5,242.9,1,1,1,1
6425377,1,1,1,0.008,-0.050,0.100,0.000,2,1,67,2010,0,0,0,0,0.29,0.00,-0.904,-0.381,9.639,-0.244,-0.671,0.183,28.21,7.64,7.71,32.2,248.7,1,1,1,1
6435377,1,1,1,0.008,-0.050,0.100,0.000,2,1,67,2010,0,0,0,0,0.29,0.00,-0.916,-0.364,9.667,-0.366,-0.671,0.183,28.25,7.64,7.71,32.2,248.5,1,1,1,1
6445377,1,1,1,0.008,-0.050,0.100,0.000,2,1,67,2010,0,0,0,0,0.29,0.00,-0.898,-0.354,9.667,-0.366,-0.671,0.183,28.20,7.63,7.71,31.8,244.9,1,1,1,1
6455377,1,1,1,0.008,-0.050,0.100,0.000,2,1,67,2010,0,0,0,0,0.29,0.00,-0.884,-0.356,9.659,-0.427,-0.732,0.244,28.19,7.63,7.72,31.8,245.1,1,1,1,1
6465377,1,1,1,0.008,-0.050,0.100,0.000,2,1,68,2010,-1,0,-1,0,0.29,0.00,-0.901,-0.368,9.664,-0.366,-0.793,0.244,28.19,7.64,7.72,31.5,243.1,1,1,1,1
6475377,1,1,1,0.008,-0.050,0.100,0.000,2,1,67,2010,1,0,0,0,0.00,0.00,-0.886,-0.370,9.683,-0.305,-0.671,0.183,28.20,7.64,7.71,32.0,246.8,1,1,1,1
6485377,1,1,1,0.008,-0.050,0.100,0.000,2,1,68,2010,-1,0,-1,0,0.00,0.00,-0.892,-0.369,9.658,-0.366,-0.671,0.244,28.21,7.63,7.71,32.8,252.7,1,1,1,1
6495384,1,1,1,0.008,-0.050,0.100,0.000,2,1,68,2010,0,0,-1,0,0.00,0.00,-0.897,-0.365,9.634,-0.427,-0.671,0.183,28.19,7.63,7.72,32.0,247.0,1,1,1,1
6505392,1,1,1,0.008,-0.050,0.100,0.000,2,1,67,2010,1,0,0,0,0.00,0.00,-0.889,-0.376,9.641,-0.488,-0.610,0.183,28.19,7.63,7.72,32.0,247.1,1,1,1,1
6515399,1,1,1,0.008,-0.050,0.100,0.000,2,1,67,2010,0,0,0,0,0.00,0.00,-0.877,-0.387,9.681,-0.427,-0.671,0.122,28.19,7.62,7.72,32.5,250.8,1,1,1,1
6525399,1,1,1,0.008,-0.050,0.100,0.000,2,1,67,2010,0,0,0,0,0.00,0.00,-0.901,-0.390,9.672,-0.366,-0.610,0.183,28.21,7.63,7.72,32.8,252.7,1,1,1,1
6535399,1,1,1,0.008,-0.050,0.100,0.000,2,1,67,2010,0,0,0,0,0.00,0.00,-0.903,-0.374,9.672,-0.427,-0.671,0.244,28.17,7.62,7.71,32.5,250.6,1,1,1,1
6545399,1,1,1,0.008,-0.050,0.100,0.000,2,1,67,2010,0,0,0,0,0.00,0.00,-0.904,-0.362,9.661,-0.427,-0.671,0.244,28.24,7.62,7.71,32.5,250.7,1,1,1,1
6555399,1,1,1,0.008,-0.050,0.100,0.000,2,1,67,2010,0,0,0,0,0.00,0.00,-0.899,-0.372,9.636,-0.366,-0.671,0.244,28.24,7.62,7.71,32.2,248.6,1,1,1,1
6565399,1,1,1,0.008,-0.050,0.100,0.000,2,1,68,2010,-1,0,-1,0,0.00,0.00,-0.892,-0.379,9.682,-0.488,-0.671,0.183,28.18,7.61,7.71,32.5,250.7,1,1,1,1
6575399,1,1,1,0.008,-0.050,0.100,0.000,2,1,67,2010,1,0,0,0,0.00,0.00,-0.912,-0.376,9.650,-0.427,-0.671,0.183,28.16,7.62,7.72,32.0,246.9,1,1,1,1
6585399,1,1,1,0.008,-0.050,0.100,0.000,2,1,68,2010,-1,0,-1,0,0.00,0.00,-0.915,-0.375,9.641,-0.366,-0.732,0.244,28.23,7.62,7.72,31.8,245.0,1,1,1,1
6595399,1,1,1,0.008,-0.050,0.100,0.000,2,1,68,2010,0,0,-1,0,0.00,0.00,-0.920,-0.380,9.679,-0.366,-0.732,0.183,28.22,7.62,7.72,32.2,248.9,1,1,1,1
6605407,1,1,1,0.008,-0.050,0.100,0.000,2,1,67,2010,1,0,0,0,0.00,0.00,-0.898,-0.377,9.655,-0.305,-0.671,0.122,28.22,7.62,7.72,32.5,250.8,1,1,1,1
6615409,1,1,1,0.008,-0.050,0.100,0.000,2,1,67,2010,0,0,0,0,0.00,0.00,-0.907,-0.368,9.669,-0.305,-0.732,0.244,28.18,7.62,7.70,31.8,244.4,1,1,1,1
6625422,1,1,1,0.008,-0.050,0.100,0.000,2,1,67,2010,0,0,0,0,0.00,0.00,-0.898,-0.385,9.668,-0.305,-0.671,0.244,28.22,7.62,7.71,31.5,242.9,1,1,1,1
6635429,1,1,1,0.008,-0.050,0.100,0.000,2,1,67,2010,0,0,0,0,0.00,0.00,-0.913,-0.373,9.649,-0.305,-0.671,0.183,28.18,7.67,7.72,32.0,247.0,1,1,1,1
6645437,1,1,1,0.008,-0.050,0.100,0.000,2,1,67,2010,0,0,0,0,0.00,0.00,-0.909,-0.366,9.658,-0.305,-0.671,0.183,28.21,7.57,7.72,32.0,247.0,1,1,1,1
6655437,1,1,1,0.008,-0.050,0.100,0.000,2,1,67,2010,0,0,0,0,0.00,0.00,-0.909,-0.365,9.664,-0.305,-0.610,0.244,28.20,6.90,7.72,31.5,243.1,1,1,1,1
6665449,1,1,1,0.008,-0.050,0.100,0.000,2,1,68,2010,-1,0,-1,0,0.00,0.00,-0.913,-0.375,9.643,-0.305,-0.671,0.244,28.19,7.62,7.72,32.2,249.0,1,1,1,1
6675457,1,1,1,0.008,-0.050,0.100,0.000,2,1,67,2010,1,0,0,0,0.00,0.00,-0.898,-0.384,9.659,-0.366,-0.732,0.183,28.18,7.62,7.72,32.0,247.1,1,1,1,1
6685457,1,1,1,0.008,-0.050,0.100,0.000,2,1,67,2010,0,0,0,0,0.00,0.00,-0.892,-0.360,9.649,-0.366,-0.732,0.122,28.22,7.62,7.71,32.0,246.8,1,1,1,1
6695464,1,1,1,0.008,-0.050,0.100,0.000,2,1,67,2010,0,0,0,0,0.00,0.00,-0.901,-0.371,9.654,-0.305,-0.671,0.183,28.20,7.63,7.72,32.5,250.8,1,1,1,1
6705473,1,1,1,0.008,-0.050,0.100,0.000,2,1,67,2010,0,0,0,0,0.00,0.00,-0.892,-0.381,9.652,-0.366,-0.671,0.183,28.21,7.63,7.72,33.0,254.8,1,1,1,1
6715473,1,1,1,0.008,-0.050,0.100,0.000,2,1,67,2010,0,0,0,0,0.00,0.00,-0.886,-0.394,9.659,-0.366,-0.671,0.183,28.21,7.63,7.72,33.0,254.8,1,1,1,1
6725473,1,1,1,0.008,-0.050,0.100,0.000,2,1,67,2010,0,0,0,0,0.00,0.00,-0.912,-0.362,9.661,-0.305,-0.732,0.183,28.21,7.63,7.71,32.2,248.8,1,1,1,1
6735473,1,1,1,0.008,-0.050,0.100,0.000,2,1,67,2010,0,0,0,0,0.00,0.00,-0.914,-0.367,9.658,-0.305,-0.732,0.244,28.23,7.63,7.72,32.8,252.7,1,1,1,1
6745473,1,1,1,0.008,-0.050,0.100,0.000,2,1,67,2010,0,0,0,0,0.00,0.00,-0.904,-0.383,9.662,-0.427,-0.732,0.122,28.23,7.64,7.72,32.8,252.8,1,1,1,1
6755479,1,1,1,0.008,-0.050,0.100,0.000,2,1,68,2010,-1,0,-1,0,0.00,0.00,-0.886,-0.398,9.640,-0.305,-0.671,0.183,28.20,7.62,7.72,32.0,247.0,1,1,1,1
6765488,1,1,1,0.008,-0.050,0.100,0.000,2,1,68,2010,0,0,-1,0,0.00,0.00,-0.922,-0.381,9.658,-0.427,-0.732,0.183,28.22,7.63,7.71,31.8,244.9,1,1,1,1
6775494,1,1,1,0.008,-0.050,0.100,0.000,2,1,68,2010,0,0,-1,0,-0.29,0.00,-0.889,-0.369,9.656,-0.305,-0.671,0.183,28.19,7.63,7.71,32.8,252.7,1,1,1,1
6785503,1,1,1,0.008,-0.050,0.100,0.000,2,1,67,2010,1,0,0,0,-0.29,0.00,-0.912,-0.367,9.656,-0.305,-0.732,0.183,28.21,7.63,7.72,31.8,245.1,1,1,1,1
6795503,1,1,1,0.008,-0.050,0.100,0.000,2,1,67,2010,0,0,0,0,-0.29,0.00,-0.896,-0.385,9.662,-0.427,-0.732,0.122,28.17,7.62,7.71,32.2,248.7,1,1,1,1
6805503,1,1,1,0.008,-0.050,0.100,0.000,2,1,67,2010,0,0,0,0,-0.29,0.00,-0.909,-0.379,9.655,-0.427,-0.732,0.183,28.23,7.63,7.72,32.8,252.7,1,1,1,1
6815503,1,1,1,0.008,-0.050,0.100,0.000,2,1,67,2010,0,0,0,0,-0.29,0.00,-0.898,-0.384,9.649,-0.366,-0.793,0.183,28.20,7.62,7.71,33.0,254.5,1,1,1,1
6825503,1,1,1,0.008,-0.050,0.100,0.000,2,1,67,2010,0,0,0,0,0.29,0.00,-0.901,-0.377,9.636,-0.183,-0.732,0.183,28.22,7.63,7.71,32.0,246.8,1,1,1,1
6835503,1,1,1,0.008,-0.050,0.100,0.000,2,1,67,2010,0,0,0,0,0.29,0.00,-0.915,-0.376,9.653,-0.305,-0.732,0.244,28.21,7.63,7.71,32.0,246.8,1,1,1,1
6845503,1,1,1,0.008,-0.050,0.100,0.000,2,1,67,2010,0,0,0,0,0.29,0.00,-0.910,-0.376,9.652,-0.427,-0.732,0.305,28.21,7.64,7.71,33.0,254.6,1,1,1,1
6855503,1,1,1,0.008,-0.050,0.100,0.000,2,1,67,2010,0,0,0,0,0.29,0.00,-0.909,-0.357,9.646,-0.427,-0.671,0.183,28.20,7.62,7.71,32.2,248.8,1,1,1,1
6865503,1,1,1,0.008,-0.050,0.100,0.000,2,1,68,2010,-1,0,-1,0,0.29,0.00,-0.909,-0.377,9.649,-0.427,-0.671,0.061,28.20,7.63,7.71,31.5,242.7,1,1,1,1
6875503,1,1,1,0.008,-0.050,0.100,0.000,2,1,67,2010,1,0,0,0,0.00,0.00,-0.905,-0.382,9.664,-0.305,-0.610,0.183,28.24,7.63,7.71,32.0,246.8,1,1,1,1
6885503,1,1,1,0.008,-0.050,0.100,0.000,2,1,68,2010,-1,0,-1,0,0.00,0.00,-0.907,-0.389,9.697,-0.366,-0.671,0.244,28.24,7.62,7.71,33.0,254.4,1,1,1,1
6895513,1,1,1,0.008,-0.050,0.100,0.000,2,1,67,2010,1,0,0,0,0.00,0.00,-0.907,-0.366,9.638,-0.305,-0.671,0.183,28.20,7.62,7.70,32.2,248.5,1,1,1,1
6905518,1,1,1,0.008,-0.050,0.100,0.000,2,1,67,2010,0,0,0,0,0.00,0.00,-0.894,-0.379,9.650,-0.305,-0.732,0.183,28.20,7.62,7.71,31.8,245.0,1,1,1,1
6915525,1,1,1,0.008,-0.050,0.100,0.000,2,1,67,2010,0,0,0,0,0.00,0.00,-0.912,-0.386,9.684,-0.427,-0.671,0.183,28.19,7.63,7.72,32.2,248.9,1,1,1,1
6925525,1,1,1,0.008,-0.050,0.100,0.000,2,1,67,2010,0,0,0,0,0.00,0.00,-0.912,-0.380,9.654,-0.366,-0.671,0.183,28.23,7.62,7.71,32.2,248.8,1,1,1,1
6935533,1,1,1,0.008,-0.050,0.100,0.000,2,1,67,2010,0,0,0,0,0.00,0.00,-0.901,-0.360,9.636,-0.366,-0.732,0.122,28.17,7.64,7.71,31.5,242.9,1,1,1,1
6945533,1,1,1,0.008,-0.050,0.100,0.000,2,1,67,2010,0,0,0,0,0.00,0.00,-0.909,-0.376,9.662,-0.305,-0.610,0.183,28.19,7.63,7.71,32.5,250.7,1,1,1,1
6955533,1,1,1,0.008,-0.050,0.100,0.000,2,1,67,2010,0,0,0,0,0.00,0.00,-0.895,-0.357,9.669,-0.366,-0.732,0.183,28.23,7.62,7.71,32.8,252.4,1,1,1,1
6965533,1,1,1,0.008,-0.050,0.100,0.000,2,1,68,2010,-1,0,-1,0,0.00,0.00,-0.882,-0.368,9.656,-0.305,-0.732,0.122,28.21,7.62,7.72,32.0,247.0,1,1,1,1
6975540,1,1,1,0.008,-0.050,0.100,0.000,2,1,68,2010,0,0,-1,0,-0.29,0.00,-0.910,-0.360,9.651,-0.244,-0.671,0.122,28.22,7.64,7.71,31.8,244.9,1,1,1,1
6985548,1,1,1,0.008,-0.050,0.100,0.000,2,1,68,2010,0,0,-1,0,-0.29,0.00,-0.916,-0.357,9.639,-0.366,-0.610,0.061,28.15,7.63,7.71,32.5,250.7,1,1,1,1
6995548,1,1,1,0.008,-0.050,0.100,0.000,2,1,67,2010,1,0,0,0,-0.29,0.00,-0.909,-0.377,9.683,-0.366,-0.610,0.183,28.18,7.63,7.71,33.0,254.4,1,1,1,1
7005548,1,1,1,0.008,-0.050,0.100,0.000,2,1,67,2010,0,0,0,0,-0.29,0.00,-0.899,-0.363,9.661,-0.305,-0.671,0.122,28.24,7.62,7.72,32.2,248.9,1,1,1,1
7015548,1,1,1,0.008,-0.050,0.100,0.000,2,1,67,2010,0,0,0,0,-0.29,0.00,-0.891,-0.364,9.668,-0.366,-0.793,0.183,28.24,7.62,7.71,32.2,248.7,1,1,1,1
7025548,1,1,1,0.008,-0.050,0.100,0.000,2,1,67,2010,0,0,0,0,0.29,0.00,-0.892,-0.367,9.642,-0.427,-0.732,0.183,28.17,7.63,7.71,33.0,254.3,1,1,1,1
7035548,1,1,1,0.008,-0.050,0.100,0.000,2,1,67,2010,0,0,0,0,0.29,0.00,-0.879,-0.353,9.661,-0.366,-0.671,0.183,28.19,7.62,7.72,32.5,250.9,1,1,1,1
7045555,1,1,1,0.008,-0.050,0.100,0.000,2,1,67,2010,0,0,0,0,0.29,0.00,-0.889,-0.368,9.661,-0.366,-0.610,0.183,28.21,7.62,7.72,32.0,247.0,1,1,1,1
7055555,1,1,1,0.008,-0.050,0.100,0.000,2,1,67,2010,0,0,0,0,0.29,0.00,-0.900,-0.371,9.653,-0.366,-0.732,0.183,28.21,7.62,7.71,32.2,248.7,1,1,1,1
7065564,1,1,1,0.008,-0.050,0.100,0.000,2,1,68,2010,-1,0,-1,0,0.29,0.00,-0.913,-0.378,9.631,-0.366,-0.732,0.244,28.15,7.63,7.72,33.0,254.8,1,1,1,1
7075564,1,1,1,0.008,-0.050,0.100,0.000,2,1,68,2010,0,0,-1,0,-0.29,0.00,-0.913,-0.378,9.631,-0.366,-0.732,0.244,28.20,7.63,7.72,31.5,243.1,1,1,1,1
7085564,1,1,1,0.008,-0.050,0.100,0.000,2,1,68,2010,0,0,-1,0,-0.29,0.00,-0.907,-0.378,9.665,-0.366,-0.671,0.183,28.21,7.63,7.72,32.8,252.8,1,1,1,1
7095564,1,1,1,0.008,-0.050,0.100,0.000,2,1,67,2010,1,0,0,0,-0.29,0.00,-0.892,-0.365,9.665,-0.366,-0.671,0.183,28.18,7.63,7.72,32.5,250.9,1,1,1,1
7105564,1,1,1,0.008,-0.050,0.100,0.000,2,1,67,2010,0,0,0,0,-0.29,0.00,-0.913,-0.375,9.659,-0.366,-0.610,0.183,28.20,7.63,7.72,32.2,249.0,1,1,1,1
7115564,1,1,1,0.008,-0.050,0.100,0.000,2,1,68,2010,-1,0,-1,0,-0.29,0.00,-0.895,-0.388,9.647,-0.427,-0.610,0.122,28.20,7.62,7.72,32.0,246.9,1,1,1,1
7125564,1,1,1,0.008,-0.050,0.100,0.000,2,1,68,2010,0,0,-1,0,0.00,0.00,-0.900,-0.375,9.663,-0.366,-0.671,0.122,28.18,7.63,7.72,32.8,253.0,1,1,1,1
7135564,1,1,1,0.008,-0.050,0.100,0.000,2,1,67,2010,1,0,0,0,0.00,0.00,-0.889,-0.379,9.647,-0.305,-0.671,0.183,28.20,7.63,7.72,33.0,254.9,1,1,1,1
7145570,1,1,1,0.008,-0.050,0.100,0.000,2,1,67,2010,0,0,0,0,0.00,0.00,-0.910,-0.375,9.664,-0.305,-0.671,0.183,28.22,7.62,7.72,32.2,249.0,1,1,1,1
7155579,1,1,1,0.008,-0.050,0.100,0.000,2,1,67,2010,0,0,0,0,0.00,0.00,-0.895,-0.379,9.657,-0.366,-0.732,0.122,28.22,7.63,7.72,32.0,247.0,1,1,1,1
7165585,1,1,1,0.008,-0.050,0.100,0.000,2,1,67,2010,0,0,0,0,0.00,0.00,-0.895,-0.380,9.665,-0.305,-0.732,0.183,28.20,7.64,7.72,33.2,256.7,1,1,1,1
7175598,1,1,1,0.008,-0.050,0.100,0.000,2,1,68,2010,-1,0,-1,0,0.00,0.00,-0.903,-0.378,9.652,-0.427,-0.732,0.183,28.23,7.77,7.72,33.0,254.6,1,1,1,1
7185609,1,1,1,0.008,-0.050,0.100,0.000,2,1,67,2010,1,0,0,0,0.00,0.00,-0.916,-0.376,9.673,-0.427,-0.671,0.183,28.24,7.64,7.71,32.2,248.8,1,1,1,1
7195616,1,1,1,0.008,-0.050,0.100,0.000,2,1,67,2010,0,0,0,0,0.00,0.00,-0.903,-0.368,9.665,-0.366,-0.732,0.183,28.19,7.63,7.72,32.0,247.0,1,1,1,1
7205616,1,1,1,0.008,-0.050,0.100,0.000,2,1,67,2010,0,0,0,0,0.00,0.00,-0.913,-0.372,9.648,-0.488,-0.732,0.244,28.18,7.64,7.72,33.0,254.9,1,1,1,1
7215624,1,1,1,0.008,-0.050,0.100,0.000,2,1,67,2010,0,0,0,0,0.00,0.00,-0.921,-0.384,9.653,-0.427,-0.732,0.183,28.18,7.63,7.72,32.8,253.0,1,1,1,1
7225624,1,1,1,0.008,-0.050,0.100,0.000,2,1,67,2010,0,0,0,0,0.29,0.00,-0.922,-0.380,9.672,-0.427,-0.671,0.183,28.21,7.63,7.72,32.0,247.1,1,1,1,1
7235624,1,1,1,0.008,-0.050,0.100,0.000,2,1,67,2010,0,0,0,0,0.29,0.00,-0.902,-0.376,9.664,-0.366,-0.671,0.183,28.16,7.64,7.71,32.2,248.7,1,1,1,1
7245624,1,1,1,0.008,-0.050,0.100,0.000,2,1,67,2010,0,0,0,0,0.29,0.00,-0.915,-0.377,9.658,-0.427,-0.732,0.183,28.21,7.63,7.71,32.0,246.7,1,1,1,1
7255624,1,1,1,0.008,-0.050,0.100,0.000,2,1,67,2010,0,0,0,0,0.29,0.00,-0.910,-0.379,9.634,-0.427,-0.671,0.061,28.23,7.63,7.72,31.8,245.0,1,1,1,1
7265624,1,1,1,0.008,-0.050,0.100,0.000,2,1,67,2010,0,0,0,0,0.29,0.00,-0.903,-0.381,9.664,-0.366,-0.793,0.183,28.22,7.63,7.71,32.0,246.6,1,1,1,1
7275624,1,1,1,0.008,-0.050,0.100,0.000,2,1,67,2010,0,0,0,0,0.00,0.00,-0.892,-0.373,9.662,-0.305,-0.732,0.244,28.20,7.70,7.72,32.5,250.8,1,1,1,1
7285624,1,1,1,0.008,-0.050,0.100,0.000,2,1,67,2010,0,0,0,0,0.00,0.00,-0.885,-0.385,9.667,-0.366,-0.671,0.183,28.20,7.62,7.70,32.5,250.4,1,1,1,1
7295631,1,1,1,0.008,-0.050,0.100,0.000,2,1,67,2010,0,0,0,0,0.00,0.00,-0.896,-0.388,9.652,-0.244,-0.671,0.122,28.20,7.63,7.71,31.8,244.8,1,1,1,1
7305639,1,1,1,0.008,-0.050,0.100,0.000,2,1,68,2010,-1,0,-1,0,0.00,0.00,-0.925,-0.390,9.645,-0.305,-0.732,0.183,28.22,7.63,7.70,33.0,254.3,1,1,1,1
7315639,1,1,1,0.008,-0.050,0.100,0.000,2,1,68,2010,0,0,-1,0,0.00,0.00,-0.895,-0.379,9.643,-0.244,-0.732,0.122,28.21,7.63,7.72,31.8,245.1,1,1,1,1
7325646,1,1,1,0.008,-0.050,0.100,0.000,2,1,67,2010,1,0,0,0,0.00,0.00,-0.886,-0.357,9.661,-0.366,-0.671,0.183,28.16,7.62,7.70,32.2,248.4,1,1,1,1
7335646,1,1,1,0.008,-0.050,0.100,0.000,2,1,67,2010,0,0,0,0,0.00,0.00,-0.900,-0.357,9.641,-0.366,-0.610,0.244,28.18,7.63,7.71,32.5,250.7,1,1,1,1
7345646,1,1,1,0.008,-0.050,0.100,0.000,2,1,67,2010,0,0,0,0,0.00,0.00,-0.924,-0.378,9.639,-0.305,-0.671,0.122,28.23,7.63,7.72,32.8,252.7,1,1,1,1
7355646,1,1,1,0.008,-0.050,0.100,0.000,2,1,67,2010,0,0,0,0,0.00,0.00,-0.909,-0.387,9.665,-0.488,-0.732,0.244,28.25,7.62,7.71,32.0,246.8,1,1,1,1
7365646,1,1,1,0.008,-0.050,0.100,0.000,2,1,67,2010,0,0,0,0,0.00,0.00,-0.901,-0.390,9.651,-0.427,-0.610,0.183,28.22,7.58,7.71,32.2,248.7,1,1,1,1
7375655,1,1,1,0.008,-0.050,0.100,0.000,2,1,67,2010,0,0,0,0,0.00,0.00,-0.901,-0.375,9.641,-0.427,-0.610,0.061,28.23,7.63,7.71,32.5,250.7,1,1,1,1
7385655,1,1,1,0.008,-0.050,0.100,0.000,2,1,67,2010,0,0,0,0,0.00,0.00,-0.892,-0.399,9.652,-0.366,-0.671,0.183,28.23,7.63,7.71,31.5,243.0,1,1,1,1
7395655,1,1,1,0.008,-0.050,0.100,0.000,2,1,68,2010,-1,0,-1,0,0.00,0.00,-0.909,-0.383,9.652,-0.305,-0.671,0.244,28.23,7.62,7.71,32.0,246.8,1,1,1,1
7405655,1,1,1,0.008,-0.050,0.100,0.000,2,1,68,2010,0,0,-1,0,0.00,0.00,-0.888,-0.363,9.643,-0.427,-0.793,0.244,28.19,7.63,7.71,32.8,252.5,1,1,1,1
7415655,1,1,1,0.008,-0.050,0.100,0.000,2,1,67,2010,1,0,0,0,0.00,0.00,-0.890,-0.371,9.646,-0.427,-0.610,0.244,28.20,7.62,7.71,32.5,250.7,1,1,1,1
7425655,1,1,1,0.008,-0.050,0.100,0.000,2,1,67,2010,0,0,0,0,0.00,0.00,-0.904,-0.382,9.657,-0.427,-0.732,0.183,28.18,7.63,7.72,31.5,243.1,1,1,1,1
7435655,1,1,1,0.008,-0.050,0.100,0.000,2,1,67,2010,0,0,0,0,0.00,0.00,-0.904,-0.374,9.674,-0.427,-0.671,0.122,28.18,7.62,7.72,32.0,247.0,1,1,1,1
7445655,1,1,1,0.008,-0.050,0.100,0.000,2,1,67,2010,0,0,0,0,0.00,0.00,-0.912,-0.363,9.652,-0.366,-0.671,0.183,28.25,7.63,7.72,32.2,249.0,1,1,1,1
7455655,1,1,1,0.008,-0.050,0.100,0.000,2,1,67,2010,0,0,0,0,0.00,0.00,-0.900,-0.375,9.662,-0.244,-0.671,0.183,28.20,7.63,7.72,32.0,247.1,1,1,1,1
7465661,1,1,1,0.008,-0.050,0.100,0.000,2,1,67,2010,0,0,0,0,0.00,0.00,-0.895,-0.375,9.652,-0.305,-0.671,0.122,28.23,7.63,7.72,32.2,249.0,1,1,1,1
7475661,1,1,1,0.008,-0.050,0.100,0.000,2,1,67,2010,0,0,0,0,0.00,0.00,-0.906,-0.387,9.643,-0.366,-0.671,0.122,28.19,7.63,7.72,32.2,249.0,1,1,1,1
7485661,1,1,1,0.008,-0.050,0.100,0.000,2,1,67,2010,0,0,0,0,0.00,0.00,-0.894,-0.384,9.640,-0.366,-0.671,0.122,28.19,7.64,7.72,32.5,250.8,1,1,1,1
7495661,1,1,1,0.008,-0.050,0.100,0.000,2,1,67,2010,0,0,0,0,0.00,0.00,-0.892,-0.364,9.667,-0.427,-0.610,0.122,28.22,7.62,7.71,31.8,244.8,1,1,1,1
7505670,1,1,1,0.008,-0.050,0.100,0.000,2,1,67,2010,0,0,0,0,0.00,0.00,-0.912,-0.389,9.683,-0.427,-0.610,0.122,28.22,7.63,7.72,31.8,245.0,1,1,1,1
7515670,1,1,1,0.008,-0.050,0.100,0.000,2,1,68,2010,-1,0,-1,0,0.00,0.00,-0.898,-0.382,9.678,-0.366,-0.732,0.122,28.20,7.62,7.71,32.8,252.5,1,1,1,1
7525670,1,1,1,0.011,-0.075,0.150,0.000,2,1,67,2010,1,0,0,0,0.00,0.00,-0.901,-0.378,9.635,-0.305,-0.732,0.183,28.23,7.64,7.72,31.2,241.2,1,1,1,1
7535670,1,1,1,0.011,-0.075,0.150,0.000,2,1,68,2010,-1,0,-1,0,0.00,0.00,-0.879,-0.394,9.644,-0.366,-0.793,0.244,28.24,7.63,7.72,34.0,262.4,1,1,1,1
7545670,1,1,1,0.011,-0.075,0.150,0.000,2,1,68,2010,0,0,-1,0,0.00,0.00,-0.883,-0.369,9.673,-0.427,-0.671,0.183,28.25,7.63,7.71,35.0,269.8,1,1,1,1
7555670,1,1,1,0.011,-0.075,0.150,0.000,2,1,67,2010,1,0,0,0,0.00,0.00,-0.914,-0.378,9.685,-0.366,-0.610,0.244,28.21,7.63,7.71,35.0,269.9,1,1,1,1
7565670,1,1,1,0.011,-0.075,0.150,0.000,2,1,67,2010,0,0,0,0,0.00,0.00,-0.916,-0.368,9.655,-0.305,-0.732,0.183,28.21,7.63,7.72,34.2,264.4,1,1,1,1
7575670,1,1,1,0.011,-0.075,0.150,0.000,2,1,67,2010,0,0,0,0,0.00,0.00,-0.901,-0.371,9.634,-0.427,-0.732,0.122,28.18,7.63,7.71,34.8,267.9,1,1,1,1
7585670,1,1,1,0.011,-0.075,0.150,0.000,2,1,67,2010,0,0,0,0,0.00,0.00,-0.900,-0.402,9.659,-0.427,-0.732,0.183,28.22,7.64,7.71,35.0,269.9,1,1,1,1
7595670,1,1,1,0.011,-0.075,0.150,0.000,2,1,67,2010,0,0,0,0,0.00,0.00,-0.904,-0.381,9.665,-0.366,-0.671,0.183,28.18,7.63,7.71,34.5,266.0,1,1,1,1
7605670,1,1,1,0.011,-0.075,0.150,0.000,2,1,67,2010,0,0,0,0,0.00,0.00,-0.901,-0.363,9.659,-0.427,-0.610,0.183,28.22,7.64,7.72,34.2,264.3,1,1,1,1
7615681,1,1,1,0.011,-0.075,0.150,0.000,2,1,67,2010,0,0,0,0,0.00,0.00,-0.887,-0.385,9.679,-0.305,-0.793,0.061,28.20,7.62,7.70,34.8,267.7,1,1,1,1
7625692,1,1,1,0.011,-0.075,0.150,0.000,2,1,68,2010,-1,0,-1,0,-0.29,0.00,-0.892,-0.374,9.659,-0.427,-0.732,0.061,28.18,7.62,7.71,34.8,268.1,1,1,1,1
7635700,1,1,1,0.011,-0.075,0.150,0.000,2,1,67,2010,1,0,0,0,-0.29,0.00,-0.907,-0.368,9.642,-0.305,-0.671,0.183,28.24,7.63,7.71,35.2,271.9,1,1,1,1
7645700,1,1,1,0.011,-0.075,0.150,0.000,2,1,68,2010,-1,0,-1,0,-0.29,0.00,-0.918,-0.378,9.664,-0.305,-0.732,0.244,28.20,7.63,7.72,34.0,262.4,1,1,1,1
7655707,1,1,1,0.011,-0.075,0.150,0.000,2,1,67,2010,1,0,0,0,-0.29,0.00,-0.899,-0.376,9.659,-0.305,-0.732,0.183,28.21,7.61,7.72,34.2,264.3,1,1,1,1
7665707,1,1,1,0.011,-0.075,0.150,0.000,2,1,67,2010,0,0,0,0,-0.29,0.00,-0.918,-0.388,9.662,-0.305,-0.671,0.183,28.25,7.62,7.71,34.8,268.0,1,1,1,1
7675707,1,1,1,0.011,-0.075,0.150,0.000,2,1,67,2010,0,0,0,0,0.29,0.00,-0.909,-0.376,9.637,-0.366,-0.671,0.183,28.19,7.63,7.71,34.8,268.0,1,1,1,1
7685707,1,1,1,0.011,-0.075,0.150,0.000,2,1,67,2010,0,0,0,0,0.29,0.00,-0.912,-0.374,9.637,-0.488,-0.793,0.183,28.17,7.63,7.72,34.8,268.2,1,1,1,1
7695715,1,1,1,0.011,-0.075,0.150,0.000,2,1,67,2010,0,0,0,0,0.29,0.00,-0.891,-0.380,9.652,-0.427,-0.732,0.122,28.21,7.63,7.72,35.0,270.1,1,1,1,1
7705715,1,1,1,0.011,-0.075,0.150,0.000,2,1,67,2010,0,0,0,0,0.29,0.00,-0.884,-0.378,9.647,-0.305,-0.671,0.122,28.21,7.62,7.72,34.8,268.1,1,1,1,1
7715715,1,1,1,0.011,-0.075,0.150,0.000,2,1,67,2010,0,0,0,0,0.29,0.00,-0.901,-0.363,9.646,-0.305,-0.732,0.183,28.20,7.51,7.72,34.8,268.1,1,1,1,1
7725715,1,1,1,0.011,-0.075,0.150,0.000,2,1,67,2010,0,0,0,0,0.00,0.00,-0.893,-0.369,9.662,-0.366,-0.854,0.183,28.19,7.63,7.72,35.2,272.2,1,1,1,1
7735722,1,1,1,0.011,-0.075,0.150,0.000,2,1,67,2010,0,0,0,0,0.00,0.00,-0.891,-0.373,9.672,-0.305,-0.671,0.244,28.23,7.63,7.72,35.2,272.0,1,1,1,1
7745730,1,1,1,0.011,-0.075,0.150,0.000,2,1,68,2010,-1,0,-1,0,0.00,0.00,-0.900,-0.373,9.661,-0.183,-0.671,0.183,28.21,7.63,7.72,34.5,266.3,1,1,1,1
7755731,1,1,1,0.011,-0.075,0.150,0.000,2,1,68,2010,0,0,-1,0,0.00,0.00,-0.914,-0.360,9.656,-0.366,-0.671,0.183,28.18,7.64,7.72,35.0,270.1,1,1,1,1
7765737,1,1,1,0.011,-0.075,0.150,0.000,2,1,68,2010,0,0,-1,0,0.00,0.00,-0.909,-0.372,9.647,-0.366,-0.732,0.122,28.21,7.63,7.72,35.2,272.1,1,1,1,1
7775737,1,1,1,0.011,-0.075,0.150,0.000,2,1,68,2010,0,0,-1,0,-0.29,0.00,-0.916,-0.385,9.676,-0.366,-0.671,0.122,28.19,7.64,7.71,35.2,272.0,1,1,1,1
7785746,1,1,1,0.011,-0.075,0.150,0.000,2,1,67,2010,1,0,0,0,-0.29,0.00,-0.894,-0.395,9.631,-0.427,-0.671,0.122,28.22,7.63,7.72,34.8,268.1,1,1,1,1
7795746,1,1,1,0.011,-0.075,0.150,0.000,2,1,68,2010,-1,0,-1,0,-0.29,0.00,-0.919,-0.365,9.644,-0.366,-0.732,0.183,28.19,7.62,7.72,35.2,272.0,1,1,1,1
7805746,1,1,1,0.011,-0.075,0.150,0.000,2,1,67,2010,1,0,0,0,-0.29,0.00,-0.901,-0.382,9.654,-0.305,-0.732,0.183,28.21,7.61,7.71,34.5,266.2,1,1,1,1
7815746,1,1,1,0.011,-0.075,0.150,0.000,2,1,67,2010,0,0,0,0,-0.29,0.00,-0.886,-0.383,9.656,-0.305,-0.671,0.122,28.19,7.62,7.72,34.2,264.5,1,1,1,1
7825753,1,1,1,0.011,-0.075,0.150,0.000,2,1,67,2010,0,0,0,0,0.29,0.00,-0.885,-0.366,9.653,-0.366,-0.671,0.183,28.20,7.62,7.72,34.8,268.3,1,1,1,1
7835761,1,1,1,0.011,-0.075,0.150,0.000,2,1,67,2010,0,0,0,0,0.29,0.00,-0.886,-0.381,9.682,-0.305,-0.671,0.183,28.25,7.63,7.72,35.2,272.1,1,1,1,1
7845761,1,1,1,0.011,-0.075,0.150,0.000,2,1,67,2010,0,0,0,0,0.29,0.00,-0.904,-0.384,9.676,-0.366,-0.610,0.183,28.25,7.63,7.72,35.2,272.2,1,1,1,1
7855761,1,1,1,0.011,-0.075,0.150,0.000,2,1,67,2010,0,0,0,0,0.29,0.00,-0.908,-0.358,9.659,-0.427,-0.732,0.183,28.20,7.63,7.72,34.2,264.3,1,1,1,1
7865761,1,1,1,0.011,-0.075,0.150,0.000,2,1,68,2010,-1,0,-1,0,0.29,0.00,-0.900,-0.362,9.652,-0.366,-0.671,0.183,28.20,7.63,7.72,35.2,272.0,1,1,1,1
7875761,1,1,1,0.011,-0.075,0.150,0.000,2,1,68,2010,0,0,-1,0,-0.29,0.00,-0.903,-0.370,9.656,-0.244,-0.732,0.122,28.18,7.63,7.72,36.0,278.0,1,1,1,1
7885761,1,1,1,0.011,-0.075,0.150,0.000,2,1,68,2010,0,0,-1,0,-0.29,0.00,-0.907,-0.371,9.662,-0.366,-0.732,0.122,28.25,7.63,7.72,34.8,268.3,1,1,1,1
7895774,1,1,1,0.011,-0.075,0.150,0.000,2,1,67,2010,1,0,0,0,-0.29,0.00,-0.910,-0.369,9.641,-0.305,-0.610,0.183,28.22,7.62,7.71,34.5,265.9,1,1,1,1
7905776,1,1,1,0.011,-0.075,0.150,0.000,2,1,67,2010,0,0,0,0,-0.29,0.00,-0.888,-0.371,9.657,-0.305,-0.610,0.183,28.21,7.62,7.72,35.2,272.1,1,1,1,1
7915783,1,1,1,0.011,-0.075,0.150,0.000,2,1,67,2010,0,0,0,0,-0.29,0.00,-0.895,-0.383,9.665,-0.305,-0.610,0.183,28.22,7.63,7.71,35.5,273.8,1,1,1,1
7925791,1,1,1,0.011,-0.075,0.150,0.000,2,1,67,2010,0,0,0,0,0.29,0.00,-0.906,-0.384,9.670,-0.366,-0.610,0.183,28.20,7.62,7.71,34.8,268.1,1,1,1,1
7935791,1,1,1,0.011,-0.075,0.150,0.000,2,1,67,2010,0,0,0,0,0.29,0.00,-0.912,-0.378,9.661,-0.366,-0.671,0.183,28.22,7.62,7.71,35.0,269.9,1,1,1,1
7945791,1,1,1,0.011,-0.075,0.150,0.000,2,1,67,2010,0,0,0,0,0.29,0.00,-0.889,-0.362,9.650,-0.305,-0.671,0.183,28.19,6.67,7.71,35.2,271.7,1,1,1,1
7955791,1,1,1,0.011,-0.075,0.150,0.000,2,1,67,2010,0,0,0,0,0.29,0.00,-0.891,-0.388,9.650,-0.305,-0.732,0.183,28.20,7.63,7.71,34.8,268.0,1,1,1,1
7965791,1,1,1,0.011,-0.075,0.150,0.000,2,1,68,2010,-1,0,-1,0,0.29,0.00,-0.889,-0.383,9.683,-0.427,-0.732,0.244,28.24,7.61,7.71,34.8,268.1,1,1,1,1
7975791,1,1,1,0.011,-0.075,0.150,0.000,2,1,68,2010,0,0,-1,0,-0.29,0.00,-0.912,-0.378,9.662,-0.427,-0.671,0.183,28.20,7.62,7.72,36.0,277.8,1,1,1,1
7985798,1,1,1,0.011,-0.075,0.150,0.000,2,1,67,2010,1,0,0,0,-0.29,0.00,-0.895,-0.374,9.665,-0.366,-0.732,0.183,28.20,7.62,7.71,35.2,271.7,1,1,1,1
7995798,1,1,1,0.011,-0.075,0.150,0.000,2,1,67,2010,0,0,0,0,-0.29,0.00,-0.912,-0.364,9.667,-0.366,-0.610,0.244,28.24,7.62,7.71,34.5,266.1,1,1,1,1
8005798,1,1,1,0.011,-0.075,0.150,0.000,2,1,67,2010,0,0,0,0,-0.29,0.00,-0.912,-0.364,9.667,-0.366,-0.610,0.244,28.21,7.62,7.71,34.5,266.1,1,1,1,1
8015806,1,1,1,0.011,-0.075,0.150,0.000,2,1,67,2010,0,0,0,0,-0.29,0.00,-0.910,-0.367,9.668,-0.305,-0.671,0.183,28.25,7.63,7.71,35.5,273.7,1,1,1,1
8025813,1,1,1,0.011,-0.075,0.150,0.000,2,1,67,2010,0,0,0,0,0.29,0.00,-0.904,-0.376,9.646,-0.366,-0.671,0.122,28.21,7.63,7.71,34.5,266.1,1,1,1,1
8035822,1,1,1,0.011,-0.075,0.150,0.000,2,1,67,2010,0,0,0,0,0.29,0.00,-0.888,-0.361,9.677,-0.244,-0.671,0.122,28.25,7.63,7.72,34.5,266.2,1,1,1,1
8045822,1,1,1,0.011,-0.075,0.150,0.000,2,1,67,2010,0,0,0,0,0.29,0.00,-0.907,-0.384,9.652,-0.244,-0.732,0.183,28.22,7.63,7.71,34.5,266.0,1,1,1,1
8055822,1,1,1,0.011,-0.075,0.150,0.000,2,1,67,2010,0,0,0,0,0.29,0.00,-0.893,-0.371,9.640,-0.427,-0.732,0.122,28.21,7.63,7.71,34.8,267.9,1,1,1,1
8065828,1,1,1,0.011,-0.075,0.150,0.000,2,1,67,2010,0,0,0,0,0.29,0.00,-0.895,-0.379,9.633,-0.427,-0.671,0.122,28.22,7.63,7.72,35.0,270.2,1,1,1,1
8075828,1,1,1,0.011,-0.075,0.150,0.000,2,1,68,2010,-1,0,-1,0,-0.29,0.00,-0.897,-0.377,9.649,-0.305,-0.671,0.122,28.19,7.63,7.72,34.5,266.2,1,1,1,1
8085828,1,1,1,0.011,-0.075,0.150,0.000,2,1,68,2010,0,0,-1,0,-0.29,0.00,-0.907,-0.368,9.657,-0.305,-0.732,0.122,28.19,7.64,7.71,35.2,272.0,1,1,1,1
8095837,1,1,1,0.011,-0.075,0.150,0.000,2,1,67,2010,1,0,0,0,-0.29,0.00,-0.884,-0.368,9.658,-0.427,-0.793,0.183,28.19,7.62,7.71,35.0,269.9,1,1,1,1
8105837,1,1,1,0.011,-0.075,0.150,0.000,2,1,68,2010,-1,0,-1,0,-0.29,0.00,-0.886,-0.381,9.671,-0.488,-0.732,0.244,28.22,7.63,7.72,34.8,268.2,1,1,1,1
8115843,1,1,1,0.011,-0.075,0.150,0.000,2,1,68,2010,0,0,-1,0,-0.29,0.00,-0.904,-0.364,9.646,-0.366,-0.671,0.183,28.23,7.62,7.71,35.5,273.8,1,1,1,1
8125852,1,1,1,0.011,-0.075,0.150,0.000,2,1,67,2010,1,0,0,0,0.29,0.00,-0.894,-0.369,9.651,-0.305,-0.732,0.122,28.23,7.62,7.71,34.8,268.1,1,1,1,1
8135858,1,1,1,0.011,-0.075,0.150,0.000,2,1,67,2010,0,0,0,0,0.29,0.00,-0.877,-0.379,9.648,-0.305,-0.671,0.122,28.19,7.62,7.72,35.0,270.1,1,1,1,1
8145858,1,1,1,0.011,-0.075,0.150,0.000,2,1,67,2010,0,0,0,0,0.29,0.00,-0.888,-0.367,9.647,-0.366,-0.732,0.183,28.21,7.63,7.72,36.0,278.1,1,1,1,1
8155867,1,1,1,0.011,-0.075,0.150,0.000,2,1,67,2010,0,0,0,0,0.29,0.00,-0.880,-0.382,9.663,-0.305,-0.671,0.183,28.19,7.62,7.72,35.0,270.1,1,1,1,1
8165867,1,1,1,0.011,-0.075,0.150,0.000,2,1,67,2010,0,0,0,0,0.29,0.00,-0.892,-0.377,9.656,-0.305,-0.671,0.244,28.20,7.63,7.71,34.8,268.1,1,1,1,1
8175872,1,1,1,0.011,-0.075,0.150,0.000,2,1,68,2010,-1,0,-1,0,-0.29,0.00,-0.902,-0.366,9.665,-0.366,-0.671,0.183,28.23,7.63,7.70,35.2,271.6,1,1,1,1
8185874,1,1,1,0.011,-0.075,0.150,0.000,2,1,67,2010,1,0,0,0,-0.29,0.00,-0.904,-0.365,9.646,-0.366,-0.671,0.122,28.24,7.63,7.72,35.5,273.9,1,1,1,1
8195882,1,1,1,0.011,-0.075,0.150,0.000,2,1,67,2010,0,0,0,0,-0.29,0.00,-0.908,-0.372,9.669,-0.305,-0.671,0.183,28.23,7.64,7.71,35.2,271.9,1,1,1,1
8205889,1,1,1,0.011,-0.075,0.150,0.000,2,1,67,2010,0,0,0,0,-0.29,0.00,-0.878,-0.360,9.664,-0.305,-0.671,0.183,28.25,7.57,7.71,34.8,267.9,1,1,1,1
8215897,1,1,1,0.011,-0.075,0.150,0.000,2,1,67,2010,0,0,0,0,-0.29,0.00,-0.910,-0.344,9.687,-0.366,-0.732,0.244,28.23,7.61,7.71,35.5,273.7,1,1,1,1
8225904,1,1,1,0.011,-0.075,0.150,0.000,2,1,67,2010,0,0,0,0,0.29,0.00,-0.906,-0.381,9.653,-0.366,-0.732,0.244,28.19,7.62,7.72,35.5,274.0,1,1,1,1
8235904,1,1,1,0.011,-0.075,0.150,0.000,2,1,67,2010,0,0,0,0,0.29,0.00,-0.911,-0.371,9.650,-0.427,-0.671,0.122,28.21,7.63,7.73,35.0,270.4,1,1,1,1
8245913,1,1,1,0.011,-0.075,0.150,0.000,2,1,67,2010,0,0,0,0,0.29,0.00,-0.908,-0.372,9.655,-0.366,-0.610,0.244,28.22,7.62,7.72,35.8,275.9,1,1,1,1
8255913,1,1,1,0.011,-0.075,0.150,0.000,2,1,67,2010,0,0,0,0,0.29,0.00,-0.890,-0.375,9.645,-0.366,-0.610,0.244,28.22,7.62,7.72,35.8,276.0,1,1,1,1
8265913,1,1,1,0.011,-0.075,0.150,0.000,2,1,67,2010,0,0,0,0,0.29,0.00,-0.888,-0.372,9.643,-0.366,-0.671,0.183,28.21,7.63,7.72,34.8,268.1,1,1,1,1
8275919,1,1,1,0.011,-0.075,0.150,0.000,2,1,68,2010,-1,0,-1,0,-0.29,0.00,-0.895,-0.356,9.646,-0.366,-0.671,0.183,28.22,7.64,7.72,35.0,270.1,1,1,1,1
8285928,1,1,1,0.011,-0.075,0.150,0.000,2,1,68,2010,0,0,-1,0,-0.29,0.00,-0.909,-0.383,9.673,-0.427,-0.671,0.244,28.23,7.64,7.72,35.8,276.1,1,1,1,1
8295928,1,1,1,0.011,-0.075,0.150,0.000,2,1,67,2010,1,0,0,0,-0.29,0.00,-0.903,-0.376,9.651,-0.366,-0.793,0.183,28.21,7.63,7.71,35.2,272.0,1,1,1,1
8305934,1,1,1,0.011,-0.075,0.150,0.000,2,1,67,2010,0,0,0,0,-0.29,0.00,-0.929,-0.373,9.644,-0.366,-0.732,0.122,28.24,7.63,7.72,34.5,266.2,1,1,1,1
8315934,1,1,1,0.011,-0.075,0.150,0.000,2,1,67,2010,0,0,0,0,-0.29,0.00,-0.905,-0.388,9.671,-0.366,-0.610,0.183,28.22,7.63,7.72,35.0,270.2,1,1,1,1
8325949,1,1,1,0.011,-0.075,0.150,0.000,2,1,68,2010,-1,0,-1,0,0.00,0.00,-0.896,-0.379,9.668,-0.305,-0.549,0.183,28.23,7.74,7.70,35.8,275.4,1,1,1,1
8335959,1,1,1,0.011,-0.075,0.150,0.000,2,1,68,2010,0,0,-1,0,0.00,0.00,-0.898,-0.381,9.660,-0.305,-0.732,0.183,28.23,7.61,7.70,35.0,269.6,1,1,1,1
8345959,1,1,1,0.011,-0.075,0.150,0.000,2,1,67,2010,1,0,0,0,0.00,0.00,-0.892,-0.361,9.658,-0.366,-0.671,0.122,28.19,7.63,7.71,34.8,268.1,1,1,1,1
8355959,1,1,1,0.011,-0.075,0.150,0.000,2,1,67,2010,0,0,0,0,0.00,0.00,-0.901,-0.372,9.645,-0.305,-0.610,0.183,28.16,7.62,7.72,35.0,270.2,1,1,1,1
8365967,1,1,1,0.011,-0.075,0.150,0.000,2,1,67,2010,0,0,0,0,0.00,0.00,-0.900,-0.375,9.646,-0.366,-0.793,0.183,28.19,7.63,7.72,35.2,272.0,1,1,1,1
8375974,1,1,1,0.011,-0.075,0.150,0.000,2,1,67,2010,0,0,0,0,0.29,0.00,-0.911,-0.380,9.667,-0.427,-0.732,0.183,28.22,7.63,7.72,35.0,270.2,1,1,1,1
8385982,1,1,1,0.011,-0.075,0.150,0.000,2,1,67,2010,0,0,0,0,0.29,0.00,-0.908,-0.381,9.664,-0.488,-0.610,0.183,28.22,7.64,7.72,34.2,264.4,1,1,1,1
8395982,1,1,1,0.011,-0.075,0.150,0.000,2,1,67,2010,0,0,0,0,0.29,0.00,-0.877,-0.360,9.665,-0.427,-0.671,0.061,28.22,7.62,7.72,34.8,268.3,1,1,1,1
8405982,1,1,1,0.011,-0.075,0.150,0.000,2,1,67,2010,0,0,0,0,0.29,0.00,-0.890,-0.366,9.670,-0.366,-0.671,0.183,28.20,7.63,7.72,34.8,268.1,1,1,1,1
8415982,1,1,1,0.011,-0.075,0.150,0.000,2,1,67,2010,0,0,0,0,0.29,0.00,-0.892,-0.362,9.644,-0.366,-0.610,0.183,28.22,7.63,7.72,34.0,262.4,1,1,1,1
8425982,1,1,1,0.011,-0.075,0.150,0.000,2,1,67,2010,0,0,0,0,0.00,0.00,-0.914,-0.387,9.653,-0.427,-0.671,0.122,28.22,7.62,7.71,35.2,271.8,1,1,1,1
8435982,1,1,1,0.011,-0.075,0.150,0.000,2,1,67,2010,0,0,0,0,0.00,0.00,-0.903,-0.373,9.650,-0.366,-0.671,0.183,28.19,7.64,7.72,35.2,272.0,1,1,1,1
8445982,1,1,1,0.011,-0.075,0.150,0.000,2,1,67,2010,0,0,0,0,0.00,0.00,-0.904,-0.369,9.664,-0.366,-0.610,0.183,28.21,7.62,7.71,34.2,264.2,1,1,1,1
8455989,1,1,1,0.011,-0.075,0.150,0.000,2,1,67,2010,0,0,0,0,0.00,0.00,-0.893,-0.392,9.659,-0.305,-0.671,0.244,28.21,7.64,7.72,34.8,268.2,1,1,1,1
8465997,1,1,1,0.011,-0.075,0.150,0.000,2,1,67,2010,0,0,0,0,0.00,0.00,-0.887,-0.365,9.659,-0.305,-0.793,0.183,28.19,7.62,7.72,35.2,272.2,1,1,1,1
8476004,1,1,1,0.011,-0.075,0.150,0.000,2,1,68,2010,-1,0,-1,0,-0.29,0.00,-0.911,-0.382,9.658,-0.366,-0.732,0.122,28.21,7.63,7.72,36.0,277.8,1,1,1,1
8486004,1,1,1,0.011,-0.075,0.150,0.000,2,1,67,2010,1,0,0,0,-0.29,0.00,-0.911,-0.380,9.638,-0.366,-0.610,0.183,28.19,7.62,7.71,34.8,267.9,1,1,1,1
8496013,1,1,1,0.011,-0.075,0.150,0.000,2,1,67,2010,0,0,0,0,-0.29,0.00,-0.897,-0.359,9.641,-0.244,-0.610,0.183,28.25,7.63,7.72,35.0,270.1,1,1,1,1
8506013,1,1,1,0.011,-0.075,0.150,0.000,2,1,67,2010,0,0,0,0,-0.29,0.00,-0.903,-0.387,9.668,-0.305,-0.671,0.122,28.22,7.62,7.72,35.8,276.0,1,1,1,1
8516013,1,1,1,0.011,-0.075,0.150,0.000,2,1,67,2010,0,0,0,0,-0.29,0.00,-0.900,-0.390,9.649,-0.305,-0.671,0.122,28.26,7.63,7.72,34.8,268.2,1,1,1,1
8526013,1,1,1,0.011,-0.075,0.150,0.000,2,1,67,2010,0,0,0,0,0.29,0.00,-0.909,-0.376,9.623,-0.366,-0.732,0.122,28.26,7.63,7.72,34.0,262.4,1,1,1,1
8536028,1,1,1,0.011,-0.075,0.150,0.000,2,1,67,2010,0,0,0,0,0.29,0.00,-0.890,-0.381,9.656,-0.427,-0.671,0.122,28.26,7.64,7.72,35.5,274.0,1,1,1,1
8546028,1,1,1,0.011,-0.075,0.150,0.000,2,1,67,2010,0,0,0,0,0.29,0.00,-0.906,-0.375,9.661,-0.366,-0.610,0.244,28.24,7.63,7.71,35.2,271.8,1,1,1,1
8556028,1,1,1,0.011,-0.075,0.150,0.000,2,1,68,2010,-1,0,-1,0,0.29,0.00,-0.909,-0.380,9.670,-0.366,-0.732,0.183,28.24,7.63,7.72,34.2,264.4,1,1,1,1
8566028,1,1,1,0.011,-0.075,0.150,0.000,2,1,67,2010,1,0,0,0,0.29,0.00,-0.891,-0.380,9.664,-0.305,-0.671,0.183,28.18,7.64,7.72,34.8,268.3,1,1,1,1
8576035,1,1,1,0.011,-0.075,0.150,0.000,2,1,68,2010,-1,0,-1,0,-0.29,0.00,-0.880,-0.384,9.642,-0.366,-0.610,0.183,28.19,7.63,7.71,35.2,271.8,1,1,1,1
8586050,1,1,1,0.011,-0.075,0.150,0.000,2,1,67,2010,1,0,0,0,-0.29,0.00,-0.902,-0.379,9.648,-0.244,-0.671,0.122,28.25,7.62,7.71,35.2,271.9,1,1,1,1
8596050,1,1,1,0.011,-0.075,0.150,0.000,2,1,67,2010,0,0,0,0,-0.29,0.00,-0.904,-0.381,9.654,-0.305,-0.732,0.122,28.24,7.62,7.71,34.2,264.2,1,1,1,1
8606058,1,1,1,0.011,-0.075,0.150,0.000,2,1,67,2010,0,0,0,0,-0.29,0.00,-0.912,-0.370,9.643,-0.427,-0.732,0.183,28.18,7.62,7.70,35.0,269.6,1,1,1,1
8616059,1,1,1,0.011,-0.075,0.150,0.000,2,1,68,2010,-1,0,-1,0,-0.29,0.00,-0.888,-0.363,9.660,-0.427,-0.610,0.244,28.18,7.64,7.70,35.0,269.4,1,1,1,1
8626073,1,1,1,0.011,-0.075,0.150,0.000,2,1,67,2010,1,0,0,0,0.29,0.00,-0.894,-0.380,9.661,-0.366,-0.732,0.183,28.20,7.64,7.72,34.8,268.2,1,1,1,1
8636073,1,1,1,0.011,-0.075,0.150,0.000,2,1,67,2010,0,0,0,0,0.29,0.00,-0.913,-0.376,9.659,-0.305,-0.732,0.244,28.19,7.64,7.71,34.5,266.2,1,1,1,1
8646073,1,1,1,0.011,-0.075,0.150,0.000,2,1,67,2010,0,0,0,0,0.29,0.00,-0.895,-0.367,9.647,-0.366,-0.671,0.183,28.21,7.64,7.72,34.8,268.1,1,1,1,1
8656073,1,1,1,0.011,-0.075,0.150,0.000,2,1,67,2010,0,0,0,0,0.29,0.00,-0.883,-0.374,9.650,-0.427,-0.732,0.183,28.21,7.56,7.72,35.0,270.1,1,1,1,1
8666073,1,1,1,0.011,-0.075,0.150,0.000,2,1,67,2010,0,0,0,0,0.29,0.00,-0.901,-0.384,9.652,-0.305,-0.671,0.244,28.25,7.63,7.72,34.8,268.2,1,1,1,1
8676073,1,1,1,0.011,-0.075,0.150,0.000,2,1,67,2010,0,0,0,0,0.00,0.00,-0.908,-0.378,9.659,-0.305,-0.671,0.244,28.25,7.63,7.71,34.2,264.2,1,1,1,1
8686080,1,1,1,0.011,-0.075,0.150,0.000,2,1,67,2010,0,0,0,0,0.00,0.00,-0.905,-0.347,9.650,-0.366,-0.610,0.183,28.19,7.64,7.71,35.2,271.9,1,1,1,1
8696080,1,1,1,0.011,-0.075,0.150,0.000,2,1,67,2010,0,0,0,0,0.00,0.00,-0.905,-0.376,9.664,-0.366,-0.732,0.122,28.22,7.63,7.71,34.8,267.8,1,1,1,1
8706088,1,1,1,0.011,-0.075,0.150,0.000,2,1,67,2010,0,0,0,0,0.00,0.00,-0.909,-0.378,9.655,-0.305,-0.793,0.183,28.22,7.63,7.71,34.8,267.9,1,1,1,1
8716095,1,1,1,0.011,-0.075,0.150,0.000,2,1,68,2010,-1,0,-1,0,0.00,0.00,-0.903,-0.382,9.658,-0.244,-0.671,0.183,28.23,7.62,7.71,35.0,270.0,1,1,1,1
8726104,1,1,1,0.015,-0.100,0.200,0.000,2,1,67,2010,1,0,0,0,0.00,0.00,-0.900,-0.382,9.659,-0.366,-0.793,0.183,28.17,7.63,7.71,35.2,272.0,1,1,1,1
8736110,1,1,1,0.015,-0.100,0.200,0.000,2,1,67,2010,0,0,0,0,0.00,0.00,-0.913,-0.378,9.638,-0.488,-0.610,0.122,28.24,7.63,7.71,38.2,294.9,1,1,1,1
8746119,1,1,1,0.015,-0.100,0.200,0.000,2,1,67,2010,0,0,0,0,0.00,0.00,-0.915,-0.379,9.650,-0.366,-0.610,0.183,28.24,7.63,7.71,38.2,295.1,1,1,1,1
8756126,1,1,1,0.015,-0.100,0.200,0.000,2,1,68,2010,-1,0,-1,0,0.00,0.00,-0.922,-0.375,9.654,-0.366,-0.732,0.183,28.21,7.63,7.71,39.8,306.6,1,1,1,1
8766126,1,1,1,0.015,-0.100,0.200,0.000,2,1,67,2010,1,0,0,0,0.00,0.00,-0.898,-0.369,9.654,-0.305,-0.793,0.122,28.21,7.62,7.71,39.2,302.5,1,1,1,1
8776126,1,1,1,0.015,-0.100,0.200,0.000,2,1,67,2010,0,0,0,0,0.00,0.00,-0.890,-0.354,9.630,-0.366,-0.671,0.244,28.19,7.63,7.71,38.5,296.9,1,1,1,1
8786134,1,1,1,0.015,-0.100,0.200,0.000,2,1,67,2010,0,0,0,0,0.00,0.00,-0.915,-0.366,9.656,-0.427,-0.671,0.244,28.22,7.63,7.72,38.8,299.0,1,1,1,1
8796141,1,1,1,0.015,-0.100,0.200,0.000,2,1,68,2010,-1,0,-1,0,0.00,0.00,-0.903,-0.384,9.643,-0.488,-0.671,0.122,28.19,7.62,7.72,39.0,301.1,1,1,1,1
8806141,1,1,1,0.015,-0.100,0.200,0.000,2,1,67,2010,1,0,0,0,0.00,0.00,-0.882,-0.374,9.656,-0.488,-0.732,0.122,28.23,7.62,7.72,39.0,300.9,1,1,1,1
8816141,1,1,1,0.015,-0.100,0.200,0.000,2,1,68,2010,-1,0,-1,0,0.00,0.00,-0.917,-0.378,9.661,-0.305,-0.671,0.183,28.23,7.62,7.72,38.2,295.1,1,1,1,1
8826141,1,1,1,0.015,-0.100,0.200,0.000,2,1,67,2010,1,0,0,0,0.00,0.00,-0.901,-0.365,9.637,-0.366,-0.732,0.183,28.24,7.59,7.71,39.5,304.5,1,1,1,1
8836141,1,1,1,0.015,-0.100,0.200,0.000,2,1,67,2010,0,0,0,0,0.00,0.00,-0.879,-0.354,9.646,-0.366,-0.671,0.183,28.22,7.63,7.71,39.0,300.6,1,1,1,1
8846141,1,1,1,0.015,-0.100,0.200,0.000,2,1,67,2010,0,0,0,0,0.00,0.00,-0.883,-0.391,9.673,-0.366,-0.671,0.122,28.19,7.62,7.71,38.5,296.9,1,1,1,1
8856149,1,1,1,0.015,-0.100,0.200,0.000,2,1,68,2010,-1,0,-1,0,0.00,0.00,-0.894,-0.376,9.664,-0.366,-0.732,0.122,28.23,7.62,7.71,39.0,300.6,1,1,1,1
8866149,1,1,1,0.015,-0.100,0.200,0.000,2,1,67,2010,1,0,0,0,0.00,0.00,-0.902,-0.360,9.646,-0.427,-0.671,0.183,28.23,7.62,7.71,40.0,308.3,1,1,1,1
8876156,1,1,1,0.015,-0.100,0.200,0.000,2,1,67,2010,0,0,0,0,0.00,0.00,-0.894,-0.373,9.665,-0.366,-0.671,0.244,28.21,7.63,7.71,39.0,300.8,1,1,1,1
8886164,1,1,1,0.015,-0.100,0.200,0.000,2,1,67,2010,0,0,0,0,0.00,0.00,-0.904,-0.353,9.658,-0.305,-0.732,0.244,28.23,7.63,7.71,39.0,300.9,1,1,1,1
8896164,1,1,1,0.015,-0.100,0.200,0.000,2,1,68,2010,-1,0,-1,0,0.00,0.00,-0.910,-0.363,9.647,-0.427,-0.610,0.061,28.21,7.62,7.70,39.5,304.1,1,1,1,1
8906171,1,1,1,0.015,-0.100,0.200,0.000,2,1,68,2010,0,0,-1,0,0.00,0.00,-0.901,-0.376,9.674,-0.366,-0.610,0.183,28.19,7.63,7.71,39.5,304.4,1,1,1,1
8916179,1,1,1,0.015,-0.100,0.200,0.000,2,1,68,2010,0,0,-1,0,0.00,0.00,-0.900,-0.384,9.658,-0.366,-0.671,0.183,28.24,7.63,7.71,38.8,298.6,1,1,1,1
8926180,1,1,1,0.015,-0.100,0.200,0.000,2,1,68,2010,0,0,-1,0,-0.29,0.00,-0.913,-0.371,9.649,-0.244,-0.610,0.244,28.20,7.63,7.71,39.2,302.8,1,1,1,1
8936195,1,1,1,0.015,-0.100,0.200,0.000,2,1,68,2010,0,0,-1,0,-0.29,0.00,-0.886,-0.378,9.662,-0.305,-0.610,0.183,28.20,7.62,7.71,40.2,310.3,1,1,1,1
8946201,1,1,1,0.015,-0.100,0.200,0.000,2,1,67,2010,1,0,0,0,-0.29,0.00,-0.886,-0.378,9.662,-0.305,-0.610,0.183,28.20,7.62,7.71,38.8,298.8,1,1,1,1
8956210,1,1,1,0.015,-0.100,0.200,0.000,2,1,67,2010,0,0,0,0,-0.29,0.00,-0.902,-0.370,9.635,-0.427,-0.610,0.122,28.23,7.62,7.71,38.5,296.8,1,1,1,1
8966217,1,1,1,0.015,-0.100,0.200,0.000,2,1,67,2010,0,0,0,0,-0.29,0.00,-0.918,-0.368,9.650,-0.427,-0.732,0.183,28.19,7.62,7.71,39.5,304.6,1,1,1,1
8976217,1,1,1,0.015,-0.100,0.200,0.000,2,1,67,2010,0,0,0,0,0.29,0.00,-0.913,-0.360,9.653,-0.366,-0.732,0.183,28.24,7.63,7.71,38.5,296.8,1,1,1,1
8986225,1,1,1,0.015,-0.100,0.200,0.000,2,1,68,2010,-1,0,-1,0,0.29,0.00,-0.922,-0.373,9.639,-0.366,-0.671,0.183,28.26,7.63,7.71,39.5,304.4,1,1,1,1
8996232,1,1,1,0.015,-0.100,0.200,0.000,2,1,68,2010,0,0,-1,0,0.29,0.00,-0.896,-0.365,9.655,-0.427,-0.732,0.183,28.20,7.62,7.71,39.8,306.5,1,1,1,1
9006240,1,1,1,0.015,-0.100,0.200,0.000,2,1,68,2010,0,0,-1,0,0.29,0.00,-0.895,-0.368,9.643,-0.366,-0.732,0.183,28.19,7.63,7.71,39.0,300.8,1,1,1,1
9016240,1,1,1,0.015,-0.100,0.200,0.000,2,1,67,2010,1,0,0,0,0.29,0.00,-0.891,-0.365,9.653,-0.366,-0.732,0.183,28.19,7.65,7.71,39.0,300.7,1,1,1,1
9026247,1,1,1,0.015,-0.100,0.200,0.000,2,1,67,2010,0,0,0,0,0.00,0.00,-0.906,-0.369,9.658,-0.427,-0.671,0.183,28.21,7.62,7.71,40.0,308.3,1,1,1,1
9036255,1,1,1,0.015,-0.100,0.200,0.000,2,1,67,2010,0,0,0,0,0.00,0.00,-0.886,-0.393,9.640,-0.366,-0.671,0.122,28.24,7.63,7.71,39.8,306.6,1,1,1,1
9046255,1,1,1,0.015,-0.100,0.200,0.000,2,1,67,2010,0,0,0,0,0.00,0.00,-0.899,-0.363,9.641,-0.366,-0.732,0.183,28.25,7.63,7.71,38.5,296.8,1,1,1,1
9056255,1,1,1,0.015,-0.100,0.200,0.000,2,1,67,2010,0,0,0,0,0.00,0.00,-0.912,-0.374,9.641,-0.305,-0.671,0.183,28.22,7.62,7.71,38.8,298.9,1,1,1,1
9066262,1,1,1,0.015,-0.100,0.200,0.000,2,1,67,2010,0,0,0,0,0.00,0.00,-0.898,-0.387,9.664,-0.305,-0.671,0.122,28.27,7.62,7.70,39.5,304.3,1,1,1,1
9076262,1,1,1,0.015,-0.100,0.200,0.000,2,1,67,2010,0,0,0,0,0.00,0.00,-0.906,-0.364,9.662,-0.427,-0.671,0.183,28.21,7.62,7.71,39.0,300.6,1,1,1,1
9086270,1,1,1,0.015,-0.100,0.200,0.000,2,1,67,2010,0,0,0,0,0.00,0.00,-0.895,-0.362,9.653,-0.366,-0.732,0.122,28.21,7.62,7.71,37.8,291.1,1,1,1,1
9096270,1,1,1,0.015,-0.100,0.200,0.000,2,1,67,2010,0,0,0,0,0.00,0.00,-0.886,-0.393,9.664,-0.305,-0.671,0.244,28.20,7.64,7.71,39.2,302.5,1,1,1,1
9106277,1,1,1,0.015,-0.100,0.200,0.000,2,1,67,2010,0,0,0,0,0.00,0.00,-0.915,-0.376,9.657,-0.427,-0.671,0.183,28.21,7.64,7.71,39.8,306.5,1,1,1,1
9116286,1,1,1,0.015,-0.100,0.200,0.000,2,1,67,2010,0,0,0,0,0.00,0.00,-0.911,-0.387,9.653,-0.427,-0.732,0.183,28.19,7.62,7.71,39.2,302.5,1,1,1,1
9126286,1,1,1,0.015,-0.100,0.200,0.000,2,1,68,2010,-1,0,-1,0,-0.29,0.00,-0.900,-0.371,9.660,-0.427,-0.610,0.183,28.21,7.64,7.71,39.5,304.5,1,1,1,1
9136292,1,1,1,0.015,-0.100,0.200,0.000,2,1,67,2010,1,0,0,0,-0.29,0.00,-0.901,-0.371,9.639,-0.305,-0.671,0.183,28.22,7.62,7.70,39.8,306.2,1,1,1,1
9146292,1,1,1,0.015,-0.100,0.200,0.000,2,1,67,2010,0,0,0,0,-0.29,0.00,-0.913,-0.358,9.646,-0.305,-0.732,0.183,28.23,7.62,7.71,39.2,302.6,1,1,1,1
9156292,1,1,1,0.015,-0.100,0.200,0.000,2,1,67,2010,0,0,0,0,-0.29,0.00,-0.920,-0.387,9.648,-0.305,-0.671,0.122,28.19,7.62,7.71,38.8,298.6,1,1,1,1
9166292,1,1,1,0.015,-0.100,0.200,0.000,2,1,67,2010,0,0,0,0,-0.29,0.00,-0.900,-0.375,9.665,-0.244,-0.610,0.183,28.20,7.62,7.70,39.2,302.4,1,1,1,1
9176297,1,1,1,0.015,-0.100,0.200,0.000,2,1,68,2010,-1,0,-1,0,0.00,0.00,-0.897,-0.371,9.644,-0.366,-0.610,0.183,28.23,7.59,7.69,39.5,303.9,1,1,1,1
9186301,1,1,1,0.015,-0.100,0.200,0.000,2,1,67,2010,1,0,0,0,0.00,0.00,-0.889,-0.371,9.661,-0.305,-0.671,0.122,28.18,7.61,7.70,39.0,300.5,1,1,1,1
9196308,1,1,1,0.015,-0.100,0.200,0.000,2,1,68,2010,-1,0,-1,0,0.00,0.00,-0.911,-0.378,9.670,-0.244,-0.732,0.183,28.20,7.63,7.71,39.0,300.7,1,1,1,1
9206316,1,1,1,0.015,-0.100,0.200,0.000,2,1,67,2010,1,0,0,0,0.00,0.00,-0.897,-0.376,9.658,-0.305,-0.732,0.244,28.22,7.63,7.71,39.8,306.5,1,1,1,1
9216316,1,1,1,0.015,-0.100,0.200,0.000,2,1,67,2010,0,0,0,0,0.00,0.00,-0.918,-0.363,9.658,-0.366,-0.671,0.183,28.21,7.63,7.71,40.0,308.5,1,1,1,1
9226323,1,1,1,0.015,-0.100,0.200,0.000,2,1,67,2010,0,0,0,0,0.29,0.00,-0.906,-0.363,9.654,-0.366,-0.671,0.183,28.21,7.63,7.71,39.0,300.8,1,1,1,1
9236331,1,1,1,0.015,-0.100,0.200,0.000,2,1,67,2010,0,0,0,0,0.29,0.00,-0.895,-0.370,9.658,-0.366,-0.671,0.183,28.22,7.63,7.71,39.0,300.8,1,1,1,1
9246338,1,1,1,0.015,-0.100,0.200,0.000,2,1,67,2010,0,0,0,0,0.29,0.00,-0.897,-0.393,9.662,-0.244,-0.732,0.122,28.18,7.61,7.71,40.2,310.3,1,1,1,1
9256346,1,1,1,0.015,-0.100,0.200,0.000,2,1,67,2010,0,0,0,0,0.29,0.00,-0.880,-0.380,9.661,-0.366,-0.793,0.183,28.21,7.62,7.71,39.2,302.6,1,1,1,1
9266346,1,1,1,0.015,-0.100,0.200,0.000,2,1,67,2010,0,0,0,0,0.29,0.00,-0.889,-0.380,9.663,-0.244,-0.610,0.122,28.23,7.62,7.71,39.2,302.7,1,1,1,1
9276353,1,1,1,0.015,-0.100,0.200,0.000,2,1,67,2010,0,0,0,0,0.00,0.00,-0.903,-0.369,9.652,-0.366,-0.610,0.122,28.23,7.62,7.72,40.0,308.7,1,1,1,1
9286362,1,1,1,0.015,-0.100,0.200,0.000,2,1,68,2010,-1,0,-1,0,0.00,0.00,-0.915,-0.365,9.645,-0.427,-0.671,0.244,28.23,7.63,7.71,39.5,304.5,1,1,1,1
9296362,1,1,1,0.015,-0.100,0.200,0.000,2,1,68,2010,0,0,-1,0,0.00,0.00,-0.903,-0.358,9.654,-0.427,-0.671,0.244,28.21,7.63,7.71,38.5,297.0,1,1,1,1
9306368,1,1,1,0.015,-0.100,0.200,0.000,2,1,68,2010,0,0,-1,0,0.00,0.00,-0.881,-0.371,9.661,-0.305,-0.671,0.183,28.27,7.63,7.71,39.8,306.5,1,1,1,1
9316368,1,1,1,0.015,-0.100,0.200,0.000,2,1,68,2010,0,0,-1,0,0.00,0.00,-0.878,-0.367,9.649,-0.427,-0.732,0.244,28.24,7.63,7.72,40.0,308.6,1,1,1,1
9326368,1,1,1,0.015,-0.100,0.200,0.000,2,1,68,2010,0,0,-1,0,-0.29,0.00,-0.900,-0.368,9.673,-0.427,-0.732,0.244,28.21,7.62,7.70,38.8,298.5,1,1,1,1
9336377,1,1,1,0.015,-0.100,0.200,0.000,2,1,67,2010,1,0,0,0,-0.29,0.00,-0.910,-0.366,9.643,-0.427,-0.610,0.183,28.23,7.63,7.71,38.5,297.0,1,1,1,1
9346377,1,1,1,0.015,-0.100,0.200,0.000,2,1,67,2010,0,0,0,0,-0.29,0.00,-0.910,-0.370,9.659,-0.427,-0.793,0.183,28.21,7.62,7.72,40.0,308.6,1,1,1,1
9356377,1,1,1,0.015,-0.100,0.200,0.000,2,1,67,2010,0,0,0,0,-0.29,0.00,-0.916,-0.366,9.647,-0.305,-0.732,0.183,28.21,7.64,7.71,40.0,308.5,1,1,1,1
9366384,1,1,1,0.015,-0.100,0.200,0.000,2,1,67,2010,0,0,0,0,-0.29,0.00,-0.898,-0.392,9.631,-0.366,-0.671,0.183,28.21,7.64,7.71,38.8,298.9,1,1,1,1
9376392,1,1,1,0.015,-0.100,0.200,0.000,2,1,67,2010,0,0,0,0,0.29,0.00,-0.883,-0.382,9.637,-0.427,-0.732,0.183,28.26,7.61,7.71,38.8,298.7,1,1,1,1
9386392,1,1,1,0.015,-0.100,0.200,0.000,2,1,67,2010,0,0,0,0,0.29,0.00,-0.886,-0.369,9.650,-0.305,-0.793,0.244,28.23,7.62,7.70,39.2,302.4,1,1,1,1
9396399,1,1,1,0.015,-0.100,0.200,0.000,2,1,68,2010,-1,0,-1,0,0.29,0.00,-0.897,-0.366,9.672,-0.366,-0.732,0.183,28.22,7.62,7.71,39.0,300.9,1,1,1,1
9406399,1,1,1,0.015,-0.100,0.200,0.000,2,1,67,2010,1,0,0,0,0.29,0.00,-0.911,-0.356,9.650,-0.427,-0.671,0.183,28.19,7.62,7.70,38.8,298.6,1,1,1,1
9416407,1,1,1,0.015,-0.100,0.200,0.000,2,1,68,2010,-1,0,-1,0,0.29,0.00,-0.910,-0.372,9.668,-0.549,-0.732,0.183,28.22,7.62,7.71,39.5,304.4,1,1,1,1
9426414,1,1,1,0.015,-0.100,0.200,0.000,2,1,67,2010,1,0,0,0,0.00,0.00,-0.912,-0.366,9.688,-0.427,-0.671,0.122,28.21,7.62,7.71,38.8,298.7,1,1,1,1
9436414,1,1,1,0.015,-0.100,0.200,0.000,2,1,67,2010,0,0,0,0,0.00,0.00,-0.904,-0.368,9.655,-0.366,-0.610,0.183,28.18,7.63,7.71,38.5,296.7,1,1,1,1
9446422,1,1,1,0.015,-0.100,0.200,0.000,2,1,67,2010,0,0,0,0,0.00,0.00,-0.906,-0.373,9.665,-0.366,-0.671,0.244,28.20,7.63,7.70,39.2,302.3,1,1,1,1
9456429,1,1,1,0.015,-0.100,0.200,0.000,2,1,67,2010,0,0,0,0,0.00,0.00,-0.899,-0.369,9.647,-0.305,-0.732,0.183,28.23,7.63,7.71,39.8,306.6,1,1,1,1
9466429,1,1,1,0.015,-0.100,0.200,0.000,2,1,67,2010,0,0,0,0,0.00,0.00,-0.885,-0.367,9.652,-0.427,-0.671,0.183,28.18,7.63,7.71,39.5,304.6,1,1,1,1
9476438,1,1,1,0.015,-0.100,0.200,0.000,2,1,68,2010,-1,0,-1,0,-0.29,0.00,-0.906,-0.375,9.644,-0.427,-0.671,0.183,28.22,7.60,7.70,38.5,296.6,1,1,1,1
9486449,1,1,1,0.015,-0.100,0.200,0.000,2,1,67,2010,1,0,0,0,-0.29,0.00,-0.892,-0.396,9.656,-0.305,-0.732,0.183,28.21,7.62,7.71,38.5,296.9,1,1,1,1
9496449,1,1,1,0.015,-0.100,0.200,0.000,2,1,68,2010,-1,0,-1,0,-0.29,0.00,-0.905,-0.385,9.652,-0.305,-0.671,0.122,28.23,7.62,7.71,39.5,304.6,1,1,1,1
9506457,1,1,1,0.015,-0.100,0.200,0.000,2,1,68,2010,0,0,-1,0,-0.29,0.00,-0.909,-0.376,9.644,-0.305,-0.610,0.122,28.23,7.62,7.71,38.5,296.9,1,1,1,1
9516464,1,1,1,0.015,-0.100,0.200,0.000,2,1,67,2010,1,0,0,0,-0.29,0.00,-0.933,-0.381,9.642,-0.305,-0.732,0.183,28.22,7.63,7.71,38.5,296.9,1,1,1,1
9526473,1,1,1,0.015,-0.100,0.200,0.000,2,1,67,2010,0,0,0,0,0.29,0.00,-0.903,-0.365,9.650,-0.305,-0.732,0.122,28.25,7.63,7.71,38.5,296.9,1,1,1,1
9536479,1,1,1,0.015,-0.100,0.200,0.000,2,1,67,2010,0,0,0,0,0.29,0.00,-0.889,-0.378,9.648,-0.427,-0.732,0.122,28.17,7.64,7.71,38.8,299.0,1,1,1,1
9546479,1,1,1,0.015,-0.100,0.200,0.000,2,1,68,2010,-1,0,-1,0,0.29,0.00,-0.884,-0.381,9.665,-0.427,-0.671,0.183,28.20,7.63,7.71,39.0,300.6,1,1,1,1
9556479,1,1,1,0.015,-0.100,0.200,0.000,2,1,67,2010,1,0,0,0,0.29,0.00,-0.888,-0.369,9.663,-0.366,-0.732,0.183,28.23,7.63,7.71,39.5,304.4,1,1,1,1
9566488,1,1,1,0.015,-0.100,0.200,0.000,2,1,67,2010,0,0,0,0,0.29,0.00,-0.915,-0.373,9.673,-0.427,-0.671,0.122,28.27,7.63,7.70,40.0,308.1,1,1,1,1
9576488,1,1,1,0.015,-0.100,0.200,0.000,2,1,67,2010,0,0,0,0,0.00,0.00,-0.907,-0.376,9.666,-0.366,-0.610,0.122,28.25,7.63,7.71,39.2,302.6,1,1,1,1
9586488,1,1,1,0.015,-0.100,0.200,0.000,2,1,67,2010,0,0,0,0,0.00,0.00,-0.907,-0.368,9.656,-0.305,-0.671,0.183,28.26,7.57,7.71,38.2,295.1,1,1,1,1
9596488,1,1,1,0.015,-0.100,0.200,0.000,2,1,67,2010,0,0,0,0,0.00,0.00,-0.901,-0.386,9.667,-0.366,-0.732,0.183,28.28,7.62,7.71,39.0,300.7,1,1,1,1
9606488,1,1,1,0.015,-0.100,0.200,0.000,2,1,68,2010,-1,0,-1,0,0.00,0.00,-0.918,-0.365,9.674,-0.244,-0.671,0.183,28.25,7.63,7.71,39.0,300.7,1,1,1,1
9616495,1,1,1,0.015,-0.100,0.200,0.000,2,1,67,2010,1,0,0,0,0.00,0.00,-0.888,-0.370,9.653,-0.305,-0.732,0.244,28.19,7.63,7.70,38.8,298.3,1,1,1,1
9626509,1,1,1,0.015,-0.100,0.200,0.000,2,1,67,2010,0,0,0,0,0.00,0.00,-0.885,-0.392,9.638,-0.305,-0.671,0.244,28.23,7.62,7.71,38.5,296.9,1,1,1,1
9636518,1,1,1,0.015,-0.100,0.200,0.000,2,1,67,2010,0,0,0,0,0.00,0.00,-0.898,-0.390,9.665,-0.305,-0.671,0.183,28.23,7.62,7.71,39.2,302.7,1,1,1,1
9646525,1,1,1,0.015,-0.100,0.200,0.000,2,1,67,2010,0,0,0,0,0.00,0.00,-0.919,-0.378,9.659,-0.366,-0.610,0.183,28.23,7.63,7.71,39.2,302.6,1,1,1,1
9656533,1,1,1,0.015,-0.100,0.200,0.000,2,1,67,2010,0,0,0,0,0.00,0.00,-0.903,-0.374,9.673,-0.366,-0.610,0.183,28.22,7.65,7.71,38.2,295.1,1,1,1,1
9666540,1,1,1,0.015,-0.100,0.200,0.000,2,1,68,2010,-1,0,-1,0,0.00,0.00,-0.898,-0.371,9.670,-0.427,-0.671,0.122,28.20,7.63,7.71,38.0,293.1,1,1,1,1
9676548,1,1,1,0.015,-0.100,0.200,0.000,2,1,67,2010,1,0,0,0,0.00,0.00,-0.914,-0.384,9.650,-0.305,-0.671,0.122,28.22,7.62,7.71,39.5,304.4,1,1,1,1
9686548,1,1,1,0.015,-0.100,0.200,0.000,2,1,68,2010,-1,0,-1,0,0.00,0.00,-0.909,-0.396,9.657,-0.305,-0.732,0.122,28.24,7.61,7.71,39.2,302.6,1,1,1,1
9696548,1,1,1,0.015,-0.100,0.200,0.000,2,1,67,2010,1,0,0,0,0.00,0.00,-0.915,-0.363,9.646,-0.305,-0.732,0.183,28.23,7.61,7.71,38.5,296.8,1,1,1,1
9706548,1,1,1,0.015,-0.100,0.200,0.000,2,1,68,2010,-1,0,-1,0,0.00,0.00,-0.897,-0.376,9.658,-0.305,-0.671,0.122,28.23,7.62,7.71,39.8,306.7,1,1,1,1
9716555,1,1,1,0.015,-0.100,0.200,0.000,2,1,67,2010,1,0,0,0,0.00,0.00,-0.901,-0.371,9.656,-0.488,-0.732,0.122,28.20,7.62,7.71,39.8,306.6,1,1,1,1
