timestamp_us,test_id,phase,run_id,cmd_v,cmd_omega,pwm_l,pwm_r,mode_l,mode_r,raw_angle_l,raw_angle_r,delta_angle_l,delta_angle_r,steps_l,steps_r,rpm_l,rpm_r,accel_x,accel_y,accel_z,gyro_x,gyro_y,gyro_z,imu_temp,battery_voltage,driver_voltage,driver_current,driver_power,encoder_valid_l,encoder_valid_r,imu_valid,ina_valid
1294338,1,0,1,0.000,0.000,0.000,0.000,0,0,1304,2817,0,0,0,0,0.00,0.00,-0.072,-0.076,9.591,-1.890,-0.305,-0.854,28.11,7.37,7.76,2.5,19.4,1,1,1,1
1304347,1,0,1,0.000,0.000,0.000,0.000,0,0,1300,2818,4,1,4,1,0.00,0.00,0.079,-0.054,9.673,-0.549,-0.183,-2.927,28.13,7.36,7.76,2.5,19.4,1,1,1,1
1314355,1,0,1,0.000,0.000,0.000,0.000,0,0,1297,2819,3,1,7,2,0.00,0.00,0.418,-0.312,9.727,-0.244,-0.366,-4.695,28.13,7.34,7.76,2.5,19.4,1,1,1,1
1324362,1,0,1,0.000,0.000,0.000,0.000,0,0,1295,2819,2,0,9,2,0.00,0.00,0.747,-0.482,9.734,0.061,-0.488,-5.000,28.16,7.34,7.76,2.5,19.4,1,1,1,1
1334362,1,0,1,0.000,0.000,0.000,0.000,0,0,1295,2819,0,0,9,2,0.00,0.00,0.946,-0.621,9.726,0.122,-0.366,-3.171,28.13,7.35,7.76,2.5,19.4,1,1,1,1
1344362,1,0,1,0.000,0.000,0.000,0.000,0,0,1296,2819,-1,0,8,2,2.34,0.59,0.512,-0.693,9.685,-0.305,-0.244,0.305,28.12,7.35,7.75,2.2,17.4,1,1,1,1
1354370,1,0,1,0.000,0.000,0.000,0.000,0,0,1298,2818,-2,-1,6,1,2.34,0.59,0.245,-0.371,9.698,0.427,-0.183,3.171,28.14,7.37,7.76,2.5,19.4,1,1,1,1
1364370,1,0,1,0.000,0.000,0.000,0.000,0,0,1300,2818,-2,0,4,1,2.34,0.59,0.226,-0.289,9.717,0.427,-0.122,4.024,28.14,7.39,7.75,2.5,19.4,1,1,1,1
1374370,1,0,1,0.000,0.000,0.000,0.000,0,0,1301,2818,-1,0,3,1,2.34,0.59,0.169,-0.301,9.718,0.061,-0.183,3.659,28.14,7.36,7.76,2.5,19.4,1,1,1,1
1384377,1,0,1,0.000,0.000,0.000,0.000,0,0,1303,2818,-2,0,1,1,2.34,0.59,0.051,-0.245,9.695,-0.549,-0.305,3.049,28.08,7.38,7.75,2.5,19.4,1,1,1,1
1394386,1,0,1,0.000,0.000,0.000,0.000,0,0,1303,2819,0,1,1,2,-2.05,0.00,0.093,-0.147,9.738,-0.427,-0.305,2.439,28.16,7.38,7.75,2.5,19.4,1,1,1,1
1404386,1,0,1,0.000,0.000,0.000,0.000,0,0,1303,2819,0,0,1,2,-2.05,0.00,0.187,-0.189,9.692,-0.610,-0.244,1.463,28.12,7.39,7.76,2.2,17.5,1,1,1,1
1414392,1,0,1,0.000,0.000,0.000,0.000,0,0,1303,2819,0,0,1,2,-2.05,0.00,0.275,-0.236,9.711,-0.488,-0.366,0.305,28.14,7.37,7.76,2.5,19.4,1,1,1,1
1424392,1,0,1,0.000,0.000,0.000,0.000,0,0,1303,2819,0,0,1,2,-2.05,0.00,0.345,-0.273,9.723,-0.427,-0.366,-0.427,28.10,7.37,7.76,2.5,19.4,1,1,1,1
1434392,1,0,1,0.000,0.000,0.000,0.000,0,0,1303,2819,0,0,1,2,-2.05,0.00,0.306,-0.372,9.700,-0.305,-0.305,-0.488,28.17,7.36,7.76,2.5,19.4,1,1,1,1
1444392,1,0,1,0.000,0.000,0.000,0.000,0,0,1303,2819,0,0,1,2,0.00,0.00,0.236,-0.345,9.695,-0.244,-0.366,-0.122,28.13,7.37,7.76,2.2,17.5,1,1,1,1
1454401,1,0,1,0.000,0.000,0.000,0.000,0,0,1303,2819,0,0,1,2,0.00,0.00,0.256,-0.275,9.713,-0.183,-0.366,0.183,28.14,7.38,7.75,2.5,19.4,1,1,1,1
1464401,1,0,1,0.000,0.000,0.000,0.000,0,0,1303,2819,0,0,1,2,0.00,0.00,0.284,-0.290,9.711,-0.305,-0.366,-0.061,28.13,7.39,7.76,2.5,19.4,1,1,1,1
1474401,1,0,1,0.000,0.000,0.000,0.000,0,0,1303,2819,0,0,1,2,0.00,0.00,0.294,-0.300,9.701,-0.427,-0.305,-0.244,28.15,7.41,7.76,2.5,19.4,1,1,1,1
1484401,1,0,1,0.000,0.000,0.000,0.000,0,0,1303,2819,0,0,1,2,0.00,0.00,0.286,-0.290,9.708,-0.366,-0.366,-0.122,28.11,7.42,7.76,2.5,19.4,1,1,1,1
1494408,1,0,1,0.000,0.000,0.000,0.000,0,0,1303,2819,0,0,1,2,0.00,0.00,0.269,-0.286,9.680,-0.305,-0.366,0.061,28.15,7.37,7.75,2.2,17.4,1,1,1,1
1504408,1,0,1,0.000,0.000,0.000,0.000,0,0,1303,2819,0,0,1,2,0.00,0.00,0.277,-0.294,9.707,-0.305,-0.366,0.061,28.14,7.41,7.75,2.5,19.4,1,1,1,1
1514416,1,0,1,0.000,0.000,0.000,0.000,0,0,1303,2819,0,0,1,2,0.00,0.00,0.265,-0.294,9.722,-0.366,-0.366,-0.122,28.11,7.41,7.76,2.5,19.4,1,1,1,1
1524416,1,0,1,0.000,0.000,0.000,0.000,0,0,1303,2819,0,0,1,2,0.00,0.00,0.274,-0.317,9.718,-0.366,-0.366,-0.122,28.16,7.42,7.76,2.5,19.4,1,1,1,1
1534416,1,0,1,0.000,0.000,0.000,0.000,0,0,1303,2819,0,0,1,2,0.00,0.00,0.283,-0.291,9.705,-0.305,-0.305,-0.061,28.14,7.41,7.75,2.2,17.4,1,1,1,1
1544416,1,0,1,0.000,0.000,0.000,0.000,0,0,1303,2819,0,0,1,2,0.00,0.00,0.259,-0.262,9.689,-0.305,-0.366,0.000,28.14,7.44,7.76,2.5,19.4,1,1,1,1
1554423,1,0,1,0.000,0.000,0.000,0.000,0,0,1303,2819,0,0,1,2,0.00,0.00,0.266,-0.293,9.688,-0.366,-0.305,-0.122,28.12,7.35,7.75,2.2,17.4,1,1,1,1
1564431,1,0,1,0.000,0.000,0.000,0.000,0,0,1303,2819,0,0,1,2,0.00,0.00,0.275,-0.283,9.680,-0.305,-0.427,-0.122,28.12,7.44,7.76,2.5,19.4,1,1,1,1
1574431,1,0,1,0.000,0.000,0.000,0.000,0,0,1303,2819,0,0,1,2,0.00,0.00,0.284,-0.283,9.711,-0.305,-0.427,0.061,28.13,7.44,7.76,2.5,19.4,1,1,1,1
1584436,1,0,1,0.000,0.000,0.000,0.000,0,0,1303,2819,0,0,1,2,0.00,0.00,0.286,-0.291,9.728,-0.427,-0.305,0.000,28.18,7.43,7.75,2.5,19.4,1,1,1,1
1594438,1,0,1,0.000,0.000,0.000,0.000,0,0,1303,2819,0,0,1,2,0.00,0.00,0.259,-0.287,9.675,-0.366,-0.366,-0.061,28.16,7.44,7.76,2.5,19.4,1,1,1,1
1604446,1,0,1,0.000,0.000,0.000,0.000,0,0,1303,2819,0,0,1,2,0.00,0.00,0.266,-0.276,9.670,-0.305,-0.366,-0.122,28.14,7.46,7.75,2.5,19.4,1,1,1,1
1614453,1,0,1,0.000,0.000,0.000,0.000,0,0,1303,2819,0,0,1,2,0.00,0.00,0.280,-0.271,9.702,-0.305,-0.366,-0.122,28.15,7.45,7.75,2.5,19.4,1,1,1,1
1624453,1,0,1,0.000,0.000,0.000,0.000,0,0,1303,2819,0,0,1,2,0.00,0.00,0.262,-0.284,9.717,-0.366,-0.366,-0.122,28.20,7.46,7.75,2.5,19.4,1,1,1,1
1634461,1,0,1,0.000,0.000,0.000,0.000,0,0,1303,2819,0,0,1,2,0.00,0.00,0.266,-0.296,9.728,-0.305,-0.366,-0.061,28.14,7.46,7.75,2.5,19.4,1,1,1,1
1644462,1,0,1,0.000,0.000,0.000,0.000,0,0,1303,2819,0,0,1,2,0.00,0.00,0.270,-0.291,9.735,-0.366,-0.366,-0.122,28.19,7.45,7.75,2.5,19.4,1,1,1,1
1654477,1,0,1,0.000,0.000,0.000,0.000,0,0,1303,2819,0,0,1,2,0.00,0.00,0.257,-0.297,9.707,-0.427,-0.366,0.000,28.15,7.44,7.75,2.5,19.4,1,1,1,1
1664477,1,0,1,0.000,0.000,0.000,0.000,0,0,1303,2819,0,0,1,2,0.00,0.00,0.269,-0.290,9.698,-0.366,-0.366,-0.122,28.14,7.46,7.75,2.5,19.4,1,1,1,1
1674483,1,0,1,0.000,0.000,0.000,0.000,0,0,1303,2819,0,0,1,2,0.00,0.00,0.262,-0.283,9.712,-0.305,-0.366,-0.122,28.12,7.46,7.75,2.5,19.4,1,1,1,1
1684483,1,0,1,0.000,0.000,0.000,0.000,0,0,1303,2819,0,0,1,2,0.00,0.00,0.245,-0.282,9.721,-0.305,-0.366,0.000,28.15,7.43,7.76,2.8,21.3,1,1,1,1
1694483,1,0,1,0.000,0.000,0.000,0.000,0,0,1303,2819,0,0,1,2,0.00,0.00,0.269,-0.294,9.707,-0.305,-0.366,-0.061,28.15,7.45,7.76,2.5,19.4,1,1,1,1
1704492,1,0,1,0.000,0.000,0.000,0.000,0,0,1303,2819,0,0,1,2,0.00,0.00,0.261,-0.285,9.691,-0.366,-0.366,-0.183,28.15,7.46,7.76,2.5,19.4,1,1,1,1
1714492,1,0,1,0.000,0.000,0.000,0.000,0,0,1303,2819,0,0,1,2,0.00,0.00,0.274,-0.290,9.715,-0.305,-0.366,0.000,28.15,7.46,7.76,2.5,19.4,1,1,1,1
1724499,1,0,1,0.000,0.000,0.000,0.000,0,0,1303,2819,0,0,1,2,0.00,0.00,0.268,-0.293,9.709,-0.366,-0.427,0.000,28.12,7.44,7.75,2.5,19.4,1,1,1,1
1734507,1,0,1,0.000,0.000,0.000,0.000,0,0,1303,2819,0,0,1,2,0.00,0.00,0.286,-0.284,9.712,-0.427,-0.427,0.000,28.15,7.46,7.76,2.8,21.3,1,1,1,1
1744514,1,0,1,0.000,0.000,0.000,0.000,0,0,1303,2819,0,0,1,2,0.00,0.00,0.280,-0.287,9.704,-0.305,-0.366,-0.061,28.14,7.46,7.75,2.8,21.3,1,1,1,1
1754514,1,0,1,0.000,0.000,0.000,0.000,0,0,1303,2819,0,0,1,2,0.00,0.00,0.265,-0.294,9.723,-0.305,-0.305,-0.122,28.13,7.46,7.75,2.5,19.4,1,1,1,1
1764522,1,0,1,0.000,0.000,0.000,0.000,0,0,1303,2819,0,0,1,2,0.00,0.00,0.272,-0.294,9.728,-0.366,-0.244,-0.061,28.15,7.43,7.75,2.5,19.4,1,1,1,1
1774522,1,0,1,0.000,0.000,0.000,0.000,0,0,1303,2819,0,0,1,2,0.00,0.00,0.270,-0.297,9.700,-0.305,-0.366,-0.061,28.12,7.46,7.75,2.5,19.4,1,1,1,1
1784522,1,0,1,0.000,0.000,0.000,0.000,0,0,1303,2819,0,0,1,2,0.00,0.00,0.287,-0.286,9.703,-0.305,-0.427,0.000,28.17,7.46,7.75,2.5,19.4,1,1,1,1
1794529,1,0,1,0.000,0.000,0.000,0.000,0,0,1303,2819,0,0,1,2,0.00,0.00,0.265,-0.272,9.703,-0.366,-0.366,0.000,28.17,7.45,7.76,2.5,19.4,1,1,1,1
1804537,1,0,1,0.000,0.000,0.000,0.000,0,0,1303,2819,0,0,1,2,0.00,0.00,0.297,-0.290,9.714,-0.305,-0.427,-0.061,28.17,7.46,7.76,2.2,17.5,1,1,1,1
1814537,1,0,1,0.000,0.000,0.000,0.000,0,0,1303,2819,0,0,1,2,0.00,0.00,0.278,-0.296,9.700,-0.366,-0.366,0.000,28.17,7.46,7.75,2.5,19.4,1,1,1,1
1824537,1,0,1,0.000,0.000,0.000,0.000,0,0,1303,2819,0,0,1,2,0.00,0.00,0.268,-0.286,9.707,-0.366,-0.366,-0.061,28.16,7.46,7.76,2.5,19.4,1,1,1,1
1834544,1,0,1,0.000,0.000,0.000,0.000,0,0,1303,2819,0,0,1,2,0.00,0.00,0.267,-0.290,9.722,-0.305,-0.366,0.000,28.13,7.42,7.75,2.5,19.4,1,1,1,1
1844544,1,0,1,0.000,0.000,0.000,0.000,0,0,1303,2819,0,0,1,2,0.00,0.00,0.272,-0.295,9.675,-0.366,-0.305,-0.122,28.15,7.46,7.76,2.5,19.4,1,1,1,1
1854544,1,0,1,0.000,0.000,0.000,0.000,0,0,1303,2819,0,0,1,2,0.00,0.00,0.274,-0.283,9.700,-0.366,-0.427,-0.122,28.15,7.46,7.76,2.5,19.4,1,1,1,1
1864553,1,0,1,0.000,0.000,0.000,0.000,0,0,1303,2819,0,0,1,2,0.00,0.00,0.281,-0.275,9.725,-0.366,-0.366,0.000,28.14,7.44,7.75,2.5,19.4,1,1,1,1
1874565,1,0,1,0.000,0.000,0.000,0.000,0,0,1303,2819,0,0,1,2,0.00,0.00,0.276,-0.305,9.712,-0.305,-0.366,-0.061,28.13,7.46,7.75,2.2,17.4,1,1,1,1
1884574,1,0,1,0.000,0.000,0.000,0.000,0,0,1303,2819,0,0,1,2,0.00,0.00,0.283,-0.282,9.720,-0.366,-0.427,-0.122,28.15,7.45,7.75,2.5,19.4,1,1,1,1
1894583,1,0,1,0.000,0.000,0.000,0.000,0,0,1303,2819,0,0,1,2,0.00,0.00,0.268,-0.270,9.720,-0.427,-0.366,-0.061,28.15,7.46,7.76,2.5,19.4,1,1,1,1
1904590,1,0,1,0.000,0.000,0.000,0.000,0,0,1303,2819,0,0,1,2,0.00,0.00,0.280,-0.307,9.700,-0.427,-0.427,-0.061,28.15,7.46,7.75,2.5,19.4,1,1,1,1
1914590,1,0,1,0.000,0.000,0.000,0.000,0,0,1303,2819,0,0,1,2,0.00,0.00,0.284,-0.298,9.706,-0.244,-0.427,-0.061,28.17,7.42,7.75,2.5,19.4,1,1,1,1
1924598,1,0,1,0.000,0.000,0.000,0.000,0,0,1303,2819,0,0,1,2,0.00,0.00,0.265,-0.289,9.699,-0.244,-0.366,-0.061,28.12,7.47,7.76,2.5,19.4,1,1,1,1
1934605,1,0,1,0.000,0.000,0.000,0.000,0,0,1303,2819,0,0,1,2,0.00,0.00,0.265,-0.293,9.694,-0.305,-0.427,-0.061,28.12,7.46,7.76,2.5,19.4,1,1,1,1
1944613,1,0,1,0.000,0.000,0.000,0.000,0,0,1303,2819,0,0,1,2,0.00,0.00,0.272,-0.299,9.737,-0.305,-0.427,-0.183,28.12,7.42,7.75,2.5,19.4,1,1,1,1
1954613,1,0,1,0.000,0.000,0.000,0.000,0,0,1303,2819,0,0,1,2,0.00,0.00,0.277,-0.289,9.731,-0.305,-0.427,-0.061,28.15,7.46,7.75,2.5,19.4,1,1,1,1
1964620,1,0,1,0.000,0.000,0.000,0.000,0,0,1303,2819,0,0,1,2,0.00,0.00,0.248,-0.293,9.714,-0.366,-0.427,-0.061,28.16,7.46,7.75,2.5,19.4,1,1,1,1
1974628,1,0,1,0.000,0.000,0.000,0.000,0,0,1303,2819,0,0,1,2,0.00,0.00,0.271,-0.295,9.717,-0.305,-0.366,0.000,28.17,7.43,7.75,2.5,19.4,1,1,1,1
1984628,1,0,1,0.000,0.000,0.000,0.000,0,0,1303,2819,0,0,1,2,0.00,0.00,0.286,-0.306,9.707,-0.305,-0.366,0.000,28.17,7.46,7.76,2.2,17.5,1,1,1,1
1994635,1,0,1,0.000,0.000,0.000,0.000,0,0,1303,2819,0,0,1,2,0.00,0.00,0.269,-0.296,9.721,-0.305,-0.366,-0.061,28.11,7.47,7.76,2.5,19.4,1,1,1,1
2004644,1,0,1,0.000,0.000,0.000,0.000,0,0,1303,2819,0,0,1,2,0.00,0.00,0.271,-0.285,9.714,-0.305,-0.366,-0.061,28.14,7.43,7.75,2.5,19.4,1,1,1,1
2014644,1,0,1,0.000,0.000,0.000,0.000,0,0,1303,2819,0,0,1,2,0.00,0.00,0.287,-0.291,9.703,-0.427,-0.427,-0.122,28.12,7.46,7.76,2.5,19.4,1,1,1,1
2024650,1,0,1,0.000,0.000,0.000,0.000,0,0,1303,2819,0,0,1,2,0.00,0.00,0.281,-0.285,9.713,-0.427,-0.427,0.000,28.13,7.46,7.76,2.5,19.4,1,1,1,1
2034659,1,0,1,0.000,0.000,0.000,0.000,0,0,1303,2819,0,0,1,2,0.00,0.00,0.261,-0.294,9.689,-0.305,-0.366,-0.061,28.16,7.45,7.76,2.5,19.4,1,1,1,1
2044659,1,0,1,0.000,0.000,0.000,0.000,0,0,1303,2819,0,0,1,2,0.00,0.00,0.272,-0.318,9.705,-0.305,-0.427,-0.122,28.14,7.46,7.76,2.5,19.4,1,1,1,1
2054659,1,0,1,0.000,0.000,0.000,0.000,0,0,1303,2819,0,0,1,2,0.00,0.00,0.259,-0.302,9.719,-0.366,-0.366,-0.122,28.13,7.46,7.76,2.5,19.4,1,1,1,1
2064659,1,0,1,0.000,0.000,0.000,0.000,0,0,1303,2819,0,0,1,2,0.00,0.00,0.269,-0.293,9.704,-0.427,-0.305,-0.061,28.13,7.46,7.75,2.5,19.4,1,1,1,1
2074659,1,0,1,0.000,0.000,0.000,0.000,0,0,1303,2819,0,0,1,2,0.00,0.00,0.261,-0.296,9.704,-0.305,-0.366,0.000,28.13,7.47,7.76,2.5,19.4,1,1,1,1
2084659,1,0,1,0.000,0.000,0.000,0.000,0,0,1303,2819,0,0,1,2,0.00,0.00,0.275,-0.309,9.732,-0.305,-0.427,-0.122,28.17,7.46,7.76,2.5,19.4,1,1,1,1
2094666,1,0,1,0.000,0.000,0.000,0.000,0,0,1303,2819,0,0,1,2,0.00,0.00,0.277,-0.287,9.718,-0.305,-0.427,-0.122,28.14,7.46,7.75,2.2,17.4,1,1,1,1
2104674,1,0,1,0.000,0.000,0.000,0.000,0,0,1303,2819,0,0,1,2,0.00,0.00,0.264,-0.294,9.689,-0.305,-0.366,-0.122,28.21,7.46,7.75,2.5,19.4,1,1,1,1
2114674,1,0,1,0.000,0.000,0.000,0.000,0,0,1303,2819,0,0,1,2,0.00,0.00,0.280,-0.317,9.692,-0.305,-0.366,-0.061,28.12,7.46,7.75,2.5,19.4,1,1,1,1
2124681,1,0,1,0.000,0.000,0.000,0.000,0,0,1303,2819,0,0,1,2,0.00,0.00,0.260,-0.285,9.710,-0.366,-0.366,0.000,28.16,7.46,7.75,2.5,19.4,1,1,1,1
2134689,1,0,1,0.000,0.000,0.000,0.000,0,0,1303,2819,0,0,1,2,0.00,0.00,0.276,-0.282,9.719,-0.366,-0.427,-0.061,28.15,7.47,7.75,2.2,17.4,1,1,1,1
2144689,1,0,1,0.000,0.000,0.000,0.000,0,0,1303,2819,0,0,1,2,0.00,0.00,0.288,-0.293,9.707,-0.366,-0.427,-0.061,28.16,7.44,7.75,2.5,19.4,1,1,1,1
2154696,1,0,1,0.000,0.000,0.000,0.000,0,0,1303,2819,0,0,1,2,0.00,0.00,0.284,-0.291,9.692,-0.305,-0.427,-0.061,28.14,7.46,7.76,2.5,19.4,1,1,1,1
2164713,1,0,1,0.000,0.000,0.000,0.000,0,0,1303,2819,0,0,1,2,0.00,0.00,0.262,-0.287,9.711,-0.305,-0.427,0.000,28.13,7.46,7.74,2.2,17.4,1,1,1,1
2174724,1,0,1,0.000,0.000,0.000,0.000,0,0,1303,2819,0,0,1,2,0.00,0.00,0.263,-0.299,9.717,-0.366,-0.427,-0.122,28.15,7.46,7.75,2.5,19.4,1,1,1,1
2184731,1,0,1,0.000,0.000,0.000,0.000,0,0,1303,2819,0,0,1,2,0.00,0.00,0.269,-0.297,9.736,-0.366,-0.366,-0.061,28.16,7.46,7.75,2.5,19.4,1,1,1,1
2194731,1,0,1,0.000,0.000,0.000,0.000,0,0,1303,2819,0,0,1,2,0.00,0.00,0.272,-0.289,9.728,-0.305,-0.366,-0.061,28.11,7.42,7.76,2.5,19.4,1,1,1,1
2204731,1,0,1,0.000,0.000,0.000,0.000,0,0,1303,2819,0,0,1,2,0.00,0.00,0.287,-0.294,9.739,-0.305,-0.427,0.000,28.21,7.46,7.76,2.5,19.4,1,1,1,1
2214731,1,0,1,0.000,0.000,0.000,0.000,0,0,1303,2819,0,0,1,2,0.00,0.00,0.290,-0.300,9.709,-0.305,-0.427,-0.061,28.12,7.46,7.75,2.5,19.4,1,1,1,1
2224731,1,0,1,0.000,0.000,0.000,0.000,0,0,1303,2819,0,0,1,2,0.00,0.00,0.263,-0.295,9.711,-0.244,-0.366,-0.061,28.16,7.46,7.75,2.5,19.4,1,1,1,1
2234739,1,0,1,0.000,0.000,0.000,0.000,0,0,1303,2819,0,0,1,2,0.00,0.00,0.278,-0.290,9.702,-0.305,-0.305,0.000,28.08,7.46,7.76,2.5,19.4,1,1,1,1
2244739,1,0,1,0.000,0.000,0.000,0.000,0,0,1303,2819,0,0,1,2,0.00,0.00,0.283,-0.299,9.689,-0.366,-0.427,0.061,28.08,7.46,7.76,2.5,19.4,1,1,1,1
2254739,1,0,1,0.000,0.000,0.000,0.000,0,0,1303,2819,0,0,1,2,0.00,0.00,0.272,-0.293,9.722,-0.305,-0.366,-0.061,28.13,7.46,7.76,2.5,19.4,1,1,1,1
2264746,1,0,1,0.000,0.000,0.000,0.000,0,0,1303,2819,0,0,1,2,0.00,0.00,0.256,-0.287,9.698,-0.305,-0.366,0.000,28.15,7.46,7.76,2.5,19.4,1,1,1,1
2274754,1,0,1,0.000,0.000,0.000,0.000,0,0,1303,2819,0,0,1,2,0.00,0.00,0.269,-0.289,9.700,-0.305,-0.366,-0.061,28.14,7.46,7.76,2.5,19.4,1,1,1,1
2284754,1,0,1,0.000,0.000,0.000,0.000,0,0,1303,2819,0,0,1,2,0.00,0.00,0.276,-0.280,9.703,-0.305,-0.427,-0.122,28.15,7.47,7.76,2.5,19.4,1,1,1,1
2294762,1,0,1,0.000,0.000,0.000,0.000,0,0,1303,2819,0,0,1,2,0.00,0.00,0.281,-0.301,9.717,-0.366,-0.305,-0.061,28.11,7.29,7.74,2.2,17.4,1,1,1,1
2304770,1,0,1,0.000,0.000,0.000,0.000,0,0,1303,2819,0,0,1,2,0.00,0.00,0.272,-0.293,9.711,-0.305,-0.366,0.000,28.17,7.47,7.75,2.5,19.4,1,1,1,1
2314770,1,0,1,0.000,0.000,0.000,0.000,0,0,1303,2819,0,0,1,2,0.00,0.00,0.275,-0.276,9.719,-0.366,-0.427,-0.122,28.16,7.44,7.75,2.8,21.3,1,1,1,1
2324770,1,0,1,0.000,0.000,0.000,0.000,0,0,1303,2819,0,0,1,2,0.00,0.00,0.280,-0.287,9.698,-0.244,-0.366,0.000,28.16,7.47,7.75,2.5,19.4,1,1,1,1
2334770,1,0,1,0.000,0.000,0.000,0.000,0,0,1303,2819,0,0,1,2,0.00,0.00,0.268,-0.293,9.702,-0.366,-0.427,0.000,28.17,7.46,7.75,2.5,19.4,1,1,1,1
2344777,1,0,1,0.000,0.000,0.000,0.000,0,0,1303,2819,0,0,1,2,0.00,0.00,0.262,-0.285,9.744,-0.427,-0.366,-0.122,28.10,7.47,7.75,2.5,19.4,1,1,1,1
2354791,1,0,1,0.000,0.000,0.000,0.000,0,0,1303,2819,0,0,1,2,0.00,0.00,0.279,-0.291,9.685,-0.305,-0.305,-0.061,28.17,7.47,7.76,2.5,19.4,1,1,1,1
2364791,1,0,1,0.000,0.000,0.000,0.000,0,0,1303,2819,0,0,1,2,0.00,0.00,0.275,-0.293,9.699,-0.366,-0.305,-0.061,28.14,7.46,7.75,2.5,19.4,1,1,1,1
2374791,1,0,1,0.000,0.000,0.000,0.000,0,0,1303,2819,0,0,1,2,0.00,0.00,0.265,-0.283,9.715,-0.366,-0.305,-0.061,28.14,7.46,7.76,2.5,19.4,1,1,1,1
2384800,1,0,1,0.000,0.000,0.000,0.000,0,0,1303,2819,0,0,1,2,0.00,0.00,0.267,-0.297,9.698,-0.305,-0.427,-0.122,28.14,7.47,7.75,2.2,17.4,1,1,1,1
2394807,1,0,1,0.000,0.000,0.000,0.000,0,0,1303,2819,0,0,1,2,0.00,0.00,0.287,-0.290,9.719,-0.366,-0.427,-0.122,28.13,7.42,7.76,2.5,19.4,1,1,1,1
2404815,1,0,1,0.000,0.000,0.000,0.000,0,0,1303,2819,0,0,1,2,0.00,0.00,0.277,-0.285,9.724,-0.305,-0.366,-0.061,28.15,7.45,7.76,2.2,17.5,1,1,1,1
2414822,1,0,1,0.000,0.000,0.000,0.000,0,0,1303,2819,0,0,1,2,0.00,0.00,0.265,-0.286,9.704,-0.244,-0.366,-0.061,28.12,7.42,7.76,2.5,19.4,1,1,1,1
2424822,1,0,1,0.000,0.000,0.000,0.000,0,0,1303,2819,0,0,1,2,0.00,0.00,0.250,-0.272,9.698,-0.366,-0.366,-0.061,28.12,7.44,7.75,2.5,19.4,1,1,1,1
2434830,1,0,1,0.000,0.000,0.000,0.000,0,0,1303,2819,0,0,1,2,0.00,0.00,0.263,-0.297,9.695,-0.366,-0.427,-0.061,28.16,7.42,7.75,2.5,19.4,1,1,1,1
2444831,1,0,1,0.000,0.000,0.000,0.000,0,0,1303,2819,0,0,1,2,0.00,0.00,0.280,-0.281,9.714,-0.366,-0.427,-0.122,28.14,7.44,7.76,2.5,19.4,1,1,1,1
2454837,1,0,1,0.000,0.000,0.000,0.000,0,0,1303,2819,0,0,1,2,0.00,0.00,0.272,-0.284,9.710,-0.366,-0.366,-0.061,28.16,7.45,7.76,2.8,21.3,1,1,1,1
2464845,1,0,1,0.000,0.000,0.000,0.000,0,0,1303,2819,0,0,1,2,0.00,0.00,0.273,-0.293,9.717,-0.305,-0.366,0.000,28.19,7.46,7.76,2.5,19.4,1,1,1,1
2474852,1,0,1,0.000,0.000,0.000,0.000,0,0,1303,2819,0,0,1,2,0.00,0.00,0.259,-0.287,9.725,-0.305,-0.427,0.000,28.12,7.46,7.76,2.5,19.4,1,1,1,1
2484861,1,0,1,0.000,0.000,0.000,0.000,0,0,1303,2819,0,0,1,2,0.00,0.00,0.278,-0.297,9.724,-0.305,-0.366,-0.061,28.14,7.45,7.75,2.5,19.4,1,1,1,1
2494868,1,0,1,0.000,0.000,0.000,0.000,0,0,1303,2819,0,0,1,2,0.00,0.00,0.271,-0.296,9.698,-0.305,-0.366,-0.122,28.16,7.46,7.75,2.5,19.4,1,1,1,1
2504876,1,0,1,0.000,0.000,0.000,0.000,0,0,1303,2819,0,0,1,2,0.00,0.00,0.265,-0.310,9.707,-0.244,-0.366,-0.061,28.18,7.46,7.76,2.5,19.4,1,1,1,1
2514876,1,0,1,0.000,0.000,0.000,0.000,0,0,1303,2819,0,0,1,2,0.00,0.00,0.259,-0.290,9.717,-0.305,-0.366,0.000,28.12,7.47,7.76,2.5,19.4,1,1,1,1
2524876,1,0,1,0.000,0.000,0.000,0.000,0,0,1303,2819,0,0,1,2,0.00,0.00,0.266,-0.293,9.692,-0.366,-0.366,-0.061,28.15,7.46,7.76,2.5,19.4,1,1,1,1
2534876,1,0,1,0.000,0.000,0.000,0.000,0,0,1303,2819,0,0,1,2,0.00,0.00,0.266,-0.288,9.698,-0.427,-0.305,0.000,28.15,7.46,7.76,2.5,19.4,1,1,1,1
2544883,1,0,1,0.000,0.000,0.000,0.000,0,0,1303,2819,0,0,1,2,0.00,0.00,0.277,-0.305,9.705,-0.427,-0.305,-0.061,28.14,7.46,7.76,2.5,19.4,1,1,1,1
2554883,1,0,1,0.000,0.000,0.000,0.000,0,0,1303,2819,0,0,1,2,0.00,0.00,0.267,-0.276,9.716,-0.305,-0.305,-0.122,28.13,7.47,7.76,2.8,21.3,1,1,1,1
2564891,1,0,1,0.000,0.000,0.000,0.000,0,0,1303,2819,0,0,1,2,0.00,0.00,0.256,-0.289,9.711,-0.305,-0.366,-0.122,28.15,7.46,7.76,2.8,21.3,1,1,1,1
2574898,1,0,1,0.000,0.000,0.000,0.000,0,0,1303,2819,0,0,1,2,0.00,0.00,0.269,-0.295,9.688,-0.366,-0.366,-0.122,28.14,7.46,7.76,2.5,19.4,1,1,1,1
2584898,1,0,1,0.000,0.000,0.000,0.000,0,0,1303,2819,0,0,1,2,0.00,0.00,0.269,-0.283,9.705,-0.366,-0.366,0.000,28.17,7.46,7.75,2.5,19.4,1,1,1,1
2594898,1,0,1,0.000,0.000,0.000,0.000,0,0,1303,2819,0,0,1,2,0.00,0.00,0.270,-0.293,9.704,-0.366,-0.305,-0.122,28.14,7.46,7.75,2.5,19.4,1,1,1,1
2604898,1,0,1,0.000,0.000,0.000,0.000,0,0,1303,2819,0,0,1,2,0.00,0.00,0.293,-0.290,9.704,-0.366,-0.305,-0.061,28.14,7.46,7.75,2.5,19.4,1,1,1,1
2614906,1,0,1,0.000,0.000,0.000,0.000,0,0,1303,2819,0,0,1,2,0.00,0.00,0.272,-0.304,9.721,-0.366,-0.244,-0.061,28.17,7.47,7.75,2.5,19.4,1,1,1,1
2624906,1,0,1,0.000,0.000,0.000,0.000,0,0,1303,2819,0,0,1,2,0.00,0.00,0.266,-0.300,9.725,-0.366,-0.305,-0.061,28.13,7.46,7.75,2.5,19.4,1,1,1,1
2634913,1,0,1,0.000,0.000,0.000,0.000,0,0,1303,2819,0,0,1,2,0.00,0.00,0.280,-0.294,9.726,-0.305,-0.366,0.000,28.12,7.47,7.76,2.5,19.4,1,1,1,1
2644913,1,0,1,0.000,0.000,0.000,0.000,0,0,1303,2819,0,0,1,2,0.00,0.00,0.245,-0.299,9.694,-0.366,-0.305,-0.061,28.14,7.46,7.76,2.5,19.4,1,1,1,1
2654921,1,0,1,0.000,0.000,0.000,0.000,0,0,1303,2819,0,0,1,2,0.00,0.00,0.263,-0.295,9.705,-0.366,-0.305,-0.122,28.14,7.46,7.75,2.5,19.4,1,1,1,1
2664928,1,0,1,0.000,0.000,0.000,0.000,0,0,1303,2819,0,0,1,2,0.00,0.00,0.266,-0.279,9.720,-0.366,-0.366,-0.183,28.17,7.47,7.76,2.5,19.4,1,1,1,1
2674928,1,0,1,0.000,0.000,0.000,0.000,0,0,1303,2819,0,0,1,2,0.00,0.00,0.256,-0.286,9.719,-0.366,-0.305,-0.122,28.20,7.47,7.76,2.8,21.3,1,1,1,1
2684937,1,0,1,0.000,0.000,0.000,0.000,0,0,1303,2819,0,0,1,2,0.00,0.00,0.259,-0.281,9.726,-0.305,-0.305,-0.061,28.15,7.45,7.76,2.5,19.4,1,1,1,1
2694944,1,0,1,0.000,0.000,0.000,0.000,0,0,1303,2819,0,0,1,2,0.00,0.00,0.267,-0.302,9.703,-0.305,-0.305,-0.061,28.13,7.46,7.76,2.5,19.4,1,1,1,1
2704958,1,0,1,0.000,0.000,0.000,0.000,0,0,1303,2819,0,0,1,2,0.00,0.00,0.259,-0.291,9.692,-0.366,-0.305,0.000,28.12,7.46,7.76,2.5,19.4,1,1,1,1
2714958,1,0,1,0.000,0.000,0.000,0.000,0,0,1303,2819,0,0,1,2,0.00,0.00,0.275,-0.303,9.718,-0.305,-0.366,0.000,28.18,7.47,7.76,2.5,19.4,1,1,1,1
2724958,1,0,1,0.000,0.000,0.000,0.000,0,0,1303,2819,0,0,1,2,0.00,0.00,0.283,-0.289,9.691,-0.366,-0.366,-0.122,28.14,7.47,7.75,2.5,19.4,1,1,1,1
2734959,1,0,1,0.000,0.000,0.000,0.000,0,0,1303,2819,0,0,1,2,0.00,0.00,0.260,-0.280,9.674,-0.427,-0.366,-0.122,28.12,7.46,7.75,2.2,17.4,1,1,1,1
2744967,1,0,1,0.000,0.000,0.000,0.000,0,0,1303,2819,0,0,1,2,0.00,0.00,0.282,-0.289,9.688,-0.305,-0.305,0.000,28.17,7.47,7.76,2.5,19.4,1,1,1,1
2754974,1,0,1,0.000,0.000,0.000,0.000,0,0,1303,2819,0,0,1,2,0.00,0.00,0.285,-0.286,9.729,-0.305,-0.305,-0.061,28.15,7.46,7.76,2.5,19.4,1,1,1,1
2764989,1,0,1,0.000,0.000,0.000,0.000,0,0,1303,2819,0,0,1,2,0.00,0.00,0.289,-0.284,9.707,-0.305,-0.427,-0.061,28.13,7.49,7.76,2.5,19.4,1,1,1,1
2774997,1,0,1,0.000,0.000,0.000,0.000,0,0,1303,2819,0,0,1,2,0.00,0.00,0.268,-0.285,9.706,-0.427,-0.427,0.000,28.13,7.46,7.75,2.5,19.4,1,1,1,1
2785004,1,0,1,0.000,0.000,0.000,0.000,0,0,1303,2819,0,0,1,2,0.00,0.00,0.280,-0.290,9.712,-0.244,-0.366,-0.061,28.17,7.44,7.76,2.5,19.4,1,1,1,1
2795013,1,0,1,0.000,0.000,0.000,0.000,0,0,1303,2819,0,0,1,2,0.00,0.00,0.271,-0.295,9.702,-0.305,-0.366,-0.061,28.13,7.47,7.75,2.8,21.3,1,1,1,1
2805019,1,0,1,0.000,0.000,0.000,0.000,0,0,1303,2819,0,0,1,2,0.00,0.00,0.263,-0.281,9.725,-0.305,-0.366,-0.061,28.16,7.47,7.76,2.5,19.4,1,1,1,1
2815028,1,0,1,0.000,0.000,0.000,0.000,0,0,1303,2819,0,0,1,2,0.00,0.00,0.276,-0.275,9.702,-0.305,-0.366,-0.122,28.16,7.47,7.75,2.5,19.4,1,1,1,1
2825034,1,0,1,0.000,0.000,0.000,0.000,0,0,1303,2819,0,0,1,2,0.00,0.00,0.273,-0.291,9.725,-0.305,-0.366,-0.122,28.16,7.46,7.76,2.5,19.4,1,1,1,1
2835034,1,0,1,0.000,0.000,0.000,0.000,0,0,1303,2819,0,0,1,2,0.00,0.00,0.273,-0.286,9.734,-0.305,-0.366,0.000,28.13,7.46,7.76,2.5,19.4,1,1,1,1
2845035,1,0,1,0.000,0.000,0.000,0.000,0,0,1303,2819,0,0,1,2,0.00,0.00,0.277,-0.283,9.716,-0.366,-0.427,-0.061,28.16,7.45,7.75,2.5,19.4,1,1,1,1
2855050,1,0,1,0.000,0.000,0.000,0.000,0,0,1303,2819,0,0,1,2,0.00,0.00,0.265,-0.293,9.718,-0.427,-0.427,-0.061,28.19,7.49,7.76,2.5,19.4,1,1,1,1
2865058,1,0,1,0.000,0.000,0.000,0.000,0,0,1303,2819,0,0,1,2,0.00,0.00,0.266,-0.274,9.713,-0.305,-0.305,0.000,28.16,7.49,7.76,2.5,19.4,1,1,1,1
2875071,1,0,1,0.000,0.000,0.000,0.000,0,0,1303,2819,0,0,1,2,0.00,0.00,0.278,-0.310,9.712,-0.427,-0.366,-0.061,28.11,7.47,7.75,2.5,19.4,1,1,1,1
2885073,1,0,1,0.000,0.000,0.000,0.000,0,0,1303,2819,0,0,1,2,0.00,0.00,0.273,-0.296,9.695,-0.366,-0.427,-0.061,28.15,7.46,7.76,2.5,19.4,1,1,1,1
2895073,1,0,1,0.000,0.000,0.000,0.000,0,0,1303,2819,0,0,1,2,0.00,0.00,0.281,-0.302,9.691,-0.366,-0.366,-0.061,28.17,7.46,7.76,2.5,19.4,1,1,1,1
2905073,1,0,1,0.000,0.000,0.000,0.000,0,0,1303,2819,0,0,1,2,0.00,0.00,0.260,-0.297,9.720,-0.366,-0.488,-0.061,28.11,7.46,7.76,2.5,19.4,1,1,1,1
2915080,1,0,1,0.000,0.000,0.000,0.000,0,0,1303,2819,0,0,1,2,0.00,0.00,0.257,-0.286,9.703,-0.427,-0.366,-0.061,28.15,7.47,7.76,2.8,21.3,1,1,1,1
2925080,1,0,1,0.000,0.000,0.000,0.000,0,0,1303,2819,0,0,1,2,0.00,0.00,0.283,-0.293,9.725,-0.366,-0.366,-0.061,28.17,7.46,7.75,2.5,19.4,1,1,1,1
2935088,1,0,1,0.000,0.000,0.000,0.000,0,0,1303,2819,0,0,1,2,0.00,0.00,0.273,-0.299,9.725,-0.427,-0.427,-0.061,28.15,7.46,7.76,2.2,17.5,1,1,1,1
2945088,1,0,1,0.000,0.000,0.000,0.000,0,0,1303,2819,0,0,1,2,0.00,0.00,0.282,-0.284,9.712,-0.366,-0.427,-0.061,28.12,7.46,7.75,2.5,19.4,1,1,1,1
2955088,1,0,1,0.000,0.000,0.000,0.000,0,0,1303,2819,0,0,1,2,0.00,0.00,0.266,-0.295,9.699,-0.305,-0.305,0.000,28.12,7.47,7.76,2.5,19.4,1,1,1,1
2965088,1,0,1,0.000,0.000,0.000,0.000,0,0,1303,2819,0,0,1,2,0.00,0.00,0.262,-0.283,9.714,-0.427,-0.366,0.000,28.16,7.46,7.76,2.5,19.4,1,1,1,1
2975088,1,0,1,0.000,0.000,0.000,0.000,0,0,1303,2819,0,0,1,2,0.00,0.00,0.257,-0.284,9.711,-0.427,-0.366,0.000,28.17,7.48,7.75,2.8,21.3,1,1,1,1
2985095,1,0,1,0.000,0.000,0.000,0.000,0,0,1303,2819,0,0,1,2,0.00,0.00,0.266,-0.298,9.715,-0.366,-0.366,-0.061,28.15,7.46,7.76,2.5,19.4,1,1,1,1
2995095,1,0,1,0.000,0.000,0.000,0.000,0,0,1303,2819,0,0,1,2,0.00,0.00,0.271,-0.292,9.710,-0.305,-0.366,-0.061,28.12,7.46,7.76,2.5,19.4,1,1,1,1
3005103,1,0,1,0.000,0.000,0.000,0.000,0,0,1303,2819,0,0,1,2,0.00,0.00,0.276,-0.313,9.731,-0.366,-0.366,-0.122,28.19,7.46,7.76,2.5,19.4,1,1,1,1
3015103,1,0,1,0.000,0.000,0.000,0.000,0,0,1303,2819,0,0,1,2,0.00,0.00,0.272,-0.303,9.711,-0.366,-0.366,-0.061,28.15,7.46,7.76,2.5,19.4,1,1,1,1
3025103,1,0,1,0.000,0.000,0.000,0.000,0,0,1303,2819,0,0,1,2,0.00,0.00,0.278,-0.272,9.723,-0.305,-0.305,0.000,28.17,7.45,7.76,2.5,19.4,1,1,1,1
3035104,1,0,1,0.000,0.000,0.000,0.000,0,0,1303,2819,0,0,1,2,0.00,0.00,0.280,-0.259,9.723,-0.427,-0.366,-0.061,28.16,7.46,7.75,2.5,19.4,1,1,1,1
3045119,1,0,1,0.000,0.000,0.000,0.000,0,0,1303,2819,0,0,1,2,0.00,0.00,0.248,-0.290,9.723,-0.427,-0.366,0.000,28.16,7.46,7.75,2.5,19.4,1,1,1,1
3055119,1,0,1,0.000,0.000,0.000,0.000,0,0,1303,2819,0,0,1,2,0.00,0.00,0.276,-0.297,9.723,-0.305,-0.427,-0.122,28.19,7.47,7.76,2.5,19.4,1,1,1,1
3065125,1,0,1,0.000,0.000,0.000,0.000,0,0,1303,2819,0,0,1,2,0.00,0.00,0.275,-0.289,9.711,-0.305,-0.427,-0.122,28.16,7.46,7.75,2.5,19.4,1,1,1,1
3075134,1,0,1,0.000,0.000,0.000,0.000,0,0,1303,2819,0,0,1,2,0.00,0.00,0.272,-0.289,9.701,-0.366,-0.305,-0.061,28.15,7.45,7.75,2.8,21.3,1,1,1,1
3085140,1,0,1,0.000,0.000,0.000,0.000,0,0,1303,2819,0,0,1,2,0.00,0.00,0.274,-0.286,9.711,-0.427,-0.305,0.000,28.17,7.46,7.75,2.5,19.4,1,1,1,1
3095140,1,0,1,0.000,0.000,0.000,0.000,0,0,1303,2819,0,0,1,2,0.00,0.00,0.267,-0.280,9.697,-0.305,-0.366,0.000,28.16,7.47,7.75,2.5,19.4,1,1,1,1
3105141,1,0,1,0.000,0.000,0.000,0.000,0,0,1303,2819,0,0,1,2,0.00,0.00,0.250,-0.272,9.713,-0.366,-0.427,-0.061,28.14,7.44,7.75,2.5,19.4,1,1,1,1
3115141,1,0,1,0.000,0.000,0.000,0.000,0,0,1303,2819,0,0,1,2,0.00,0.00,0.272,-0.274,9.697,-0.305,-0.366,-0.061,28.15,7.46,7.75,2.5,19.4,1,1,1,1
3125156,1,0,1,0.000,0.000,0.000,0.000,0,0,1303,2819,0,0,1,2,0.00,0.00,0.268,-0.283,9.717,-0.305,-0.427,-0.061,28.16,7.46,7.76,2.5,19.4,1,1,1,1
3135156,1,0,1,0.000,0.000,0.000,0.000,0,0,1303,2819,0,0,1,2,0.00,0.00,0.265,-0.286,9.713,-0.366,-0.427,-0.061,28.16,7.45,7.76,2.5,19.4,1,1,1,1
3145164,1,0,1,0.000,0.000,0.000,0.000,0,0,1303,2819,0,0,1,2,0.00,0.00,0.264,-0.313,9.705,-0.366,-0.305,-0.061,28.14,7.46,7.76,2.5,19.4,1,1,1,1
3155171,1,0,1,0.000,0.000,0.000,0.000,0,0,1303,2819,0,0,1,2,0.00,0.00,0.253,-0.298,9.707,-0.305,-0.366,0.000,28.16,7.47,7.76,2.5,19.4,1,1,1,1
3165175,1,0,1,0.000,0.000,0.000,0.000,0,0,1303,2819,0,0,1,2,0.00,0.00,0.272,-0.273,9.691,-0.183,-0.366,0.000,28.16,7.46,7.74,2.5,19.4,1,1,1,1
3175179,1,0,1,0.000,0.000,0.000,0.000,0,0,1303,2819,0,0,1,2,0.00,0.00,0.280,-0.294,9.706,-0.305,-0.366,0.000,28.17,7.46,7.76,2.5,19.4,1,1,1,1
3185186,1,0,1,0.000,0.000,0.000,0.000,0,0,1303,2819,0,0,1,2,0.00,0.00,0.267,-0.290,9.720,-0.366,-0.427,0.000,28.17,7.42,7.75,2.5,19.4,1,1,1,1
3195195,1,0,1,0.000,0.000,0.000,0.000,0,0,1303,2819,0,0,1,2,0.00,0.00,0.252,-0.292,9.719,-0.305,-0.366,-0.061,28.12,7.46,7.75,2.5,19.4,1,1,1,1
3205201,1,0,1,0.000,0.000,0.000,0.000,0,0,1303,2819,0,0,1,2,0.00,0.00,0.263,-0.295,9.717,-0.244,-0.305,-0.122,28.19,7.46,7.75,2.5,19.4,1,1,1,1
3215201,1,0,1,0.000,0.000,0.000,0.000,0,0,1303,2819,0,0,1,2,0.00,0.00,0.264,-0.289,9.710,-0.366,-0.366,-0.122,28.19,7.46,7.75,2.8,21.3,1,1,1,1
3225210,1,0,1,0.000,0.000,0.000,0.000,0,0,1303,2819,0,0,1,2,0.00,0.00,0.254,-0.300,9.696,-0.427,-0.427,-0.061,28.12,7.47,7.76,2.5,19.4,1,1,1,1
3235219,1,0,1,0.000,0.000,0.000,0.000,0,0,1303,2819,0,0,1,2,0.00,0.00,0.269,-0.301,9.702,-0.366,-0.366,0.000,28.13,7.46,7.76,2.5,19.4,1,1,1,1
3245225,1,0,1,0.000,0.000,0.000,0.000,0,0,1303,2819,0,0,1,2,0.00,0.00,0.277,-0.288,9.723,-0.305,-0.305,0.061,28.19,7.47,7.76,2.5,19.4,1,1,1,1
3255225,1,0,1,0.000,0.000,0.000,0.000,0,0,1303,2819,0,0,1,2,0.00,0.00,0.259,-0.287,9.725,-0.244,-0.305,-0.061,28.15,7.49,7.76,2.5,19.4,1,1,1,1
3265225,1,0,1,0.000,0.000,0.000,0.000,0,0,1303,2819,0,0,1,2,0.00,0.00,0.253,-0.293,9.713,-0.366,-0.427,-0.061,28.14,7.46,7.76,2.5,19.4,1,1,1,1
3275225,1,0,1,0.000,0.000,0.000,0.000,0,0,1303,2819,0,0,1,2,0.00,0.00,0.253,-0.286,9.692,-0.305,-0.427,-0.061,28.14,7.47,7.76,2.5,19.4,1,1,1,1
3285225,1,0,1,0.000,0.000,0.000,0.000,0,0,1303,2819,0,0,1,2,0.00,0.00,0.271,-0.283,9.688,-0.305,-0.366,-0.061,28.14,7.46,7.75,2.5,19.4,1,1,1,1
3295226,1,0,1,0.000,0.000,0.000,0.000,0,0,1303,2819,0,0,1,2,0.00,0.00,0.286,-0.286,9.710,-0.366,-0.366,-0.122,28.15,7.46,7.74,2.5,19.4,1,1,1,1
3305234,1,0,1,0.000,0.000,0.000,0.000,0,0,1303,2819,0,0,1,2,0.00,0.00,0.288,-0.305,9.704,-0.305,-0.427,-0.122,28.15,7.46,7.76,2.8,21.3,1,1,1,1
3315241,1,0,1,0.000,0.000,0.000,0.000,0,0,1303,2819,0,0,1,2,0.00,0.00,0.274,-0.308,9.723,-0.366,-0.366,0.000,28.16,7.47,7.76,2.2,17.5,1,1,1,1
3325249,1,0,1,0.000,0.000,0.000,0.000,0,0,1303,2819,0,0,1,2,0.00,0.00,0.271,-0.294,9.713,-0.244,-0.366,0.000,28.15,7.46,7.75,2.5,19.4,1,1,1,1
3335249,1,0,1,0.000,0.000,0.000,0.000,0,0,1303,2819,0,0,1,2,0.00,0.00,0.281,-0.290,9.704,-0.305,-0.427,0.000,28.21,7.46,7.76,2.5,19.4,1,1,1,1
3345249,1,0,1,0.000,0.000,0.000,0.000,0,0,1303,2819,0,0,1,2,0.00,0.00,0.282,-0.278,9.734,-0.305,-0.427,0.000,28.14,7.47,7.75,2.5,19.4,1,1,1,1
3355256,1,0,1,0.000,0.000,0.000,0.000,0,0,1303,2819,0,0,1,2,0.00,0.00,0.260,-0.284,9.698,-0.305,-0.427,-0.061,28.15,7.50,7.76,2.5,19.4,1,1,1,1
3365256,1,0,1,0.000,0.000,0.000,0.000,0,0,1303,2819,0,0,1,2,0.00,0.00,0.271,-0.294,9.711,-0.366,-0.366,-0.122,28.18,7.47,7.76,2.5,19.4,1,1,1,1
3375256,1,0,1,0.000,0.000,0.000,0.000,0,0,1303,2819,0,0,1,2,0.00,0.00,0.286,-0.285,9.717,-0.366,-0.366,-0.183,28.24,7.50,7.75,2.5,19.4,1,1,1,1
3385264,1,0,1,0.000,0.000,0.000,0.000,0,0,1303,2819,0,0,1,2,0.00,0.00,0.253,-0.283,9.723,-0.305,-0.366,-0.061,28.15,7.46,7.76,2.5,19.4,1,1,1,1
3395271,1,0,1,0.000,0.000,0.000,0.000,0,0,1303,2819,0,0,1,2,0.00,0.00,0.263,-0.287,9.711,-0.305,-0.427,-0.061,28.14,7.45,7.76,2.5,19.4,1,1,1,1
3405279,1,0,1,0.000,0.000,0.000,0.000,0,0,1303,2819,0,0,1,2,0.00,0.00,0.268,-0.293,9.717,-0.305,-0.305,-0.122,28.19,7.49,7.76,2.5,19.4,1,1,1,1
3415279,1,0,1,0.000,0.000,0.000,0.000,0,0,1303,2819,0,0,1,2,0.00,0.00,0.259,-0.287,9.689,-0.305,-0.305,-0.122,28.16,7.50,7.76,2.5,19.4,1,1,1,1
3425286,1,0,1,0.000,0.000,0.000,0.000,0,0,1303,2819,0,0,1,2,0.00,0.00,0.266,-0.306,9.728,-0.305,-0.305,-0.061,28.18,7.47,7.76,2.8,21.3,1,1,1,1
3435295,1,0,1,0.000,0.000,0.000,0.000,0,0,1303,2819,0,0,1,2,0.00,0.00,0.280,-0.289,9.722,-0.244,-0.427,-0.061,28.14,7.49,7.76,2.5,19.4,1,1,1,1
3445295,1,0,1,0.000,0.000,0.000,0.000,0,0,1303,2819,0,0,1,2,0.00,0.00,0.272,-0.289,9.697,-0.305,-0.366,-0.122,28.17,7.46,7.76,2.5,19.4,1,1,1,1
3455301,1,0,1,0.000,0.000,0.000,0.000,0,0,1303,2819,0,0,1,2,0.00,0.00,0.261,-0.286,9.722,-0.366,-0.366,-0.061,28.15,7.50,7.76,2.5,19.4,1,1,1,1
3465301,1,0,1,0.000,0.000,0.000,0.000,0,0,1303,2819,0,0,1,2,0.00,0.00,0.272,-0.307,9.713,-0.305,-0.427,0.000,28.14,7.47,7.76,2.5,19.4,1,1,1,1
3475301,1,0,1,0.000,0.000,0.000,0.000,0,0,1303,2819,0,0,1,2,0.00,0.00,0.264,-0.281,9.695,-0.305,-0.366,-0.122,28.18,7.48,7.76,2.8,21.3,1,1,1,1
3485301,1,0,1,0.000,0.000,0.000,0.000,0,0,1303,2819,0,0,1,2,0.00,0.00,0.272,-0.287,9.694,-0.305,-0.427,-0.122,28.18,7.47,7.76,2.5,19.4,1,1,1,1
3495301,1,0,1,0.000,0.000,0.000,0.000,0,0,1303,2819,0,0,1,2,0.00,0.00,0.269,-0.291,9.735,-0.366,-0.427,-0.061,28.14,7.46,7.76,2.5,19.4,1,1,1,1
3505301,1,0,1,0.000,0.000,0.000,0.000,0,0,1303,2819,0,0,1,2,0.00,0.00,0.279,-0.289,9.726,-0.366,-0.366,-0.061,28.14,7.47,7.76,2.5,19.4,1,1,1,1
3515310,1,0,1,0.000,0.000,0.000,0.000,0,0,1303,2819,0,0,1,2,0.00,0.00,0.265,-0.280,9.686,-0.427,-0.305,-0.061,28.13,7.46,7.76,2.2,17.5,1,1,1,1
3525316,1,0,1,0.000,0.000,0.000,0.000,0,0,1303,2819,0,0,1,2,0.00,0.00,0.271,-0.280,9.709,-0.366,-0.366,-0.061,28.19,7.49,7.76,2.5,19.4,1,1,1,1
3535325,1,0,1,0.000,0.000,0.000,0.000,0,0,1303,2819,0,0,1,2,0.00,0.00,0.259,-0.290,9.712,-0.427,-0.366,-0.061,28.20,7.46,7.76,2.5,19.4,1,1,1,1
3545332,1,0,1,0.000,0.000,0.000,0.000,0,0,1303,2819,0,0,1,2,0.00,0.00,0.250,-0.280,9.700,-0.366,-0.305,0.000,28.10,7.46,7.75,2.5,19.4,1,1,1,1
3555340,1,0,1,0.000,0.000,0.000,0.000,0,0,1303,2819,0,0,1,2,0.00,0.00,0.274,-0.281,9.703,-0.305,-0.366,-0.061,28.16,7.49,7.75,2.5,19.4,1,1,1,1
3565340,1,0,1,0.000,0.000,0.000,0.000,0,0,1303,2819,0,0,1,2,0.00,0.00,0.250,-0.280,9.732,-0.366,-0.366,-0.122,28.14,7.47,7.75,2.5,19.4,1,1,1,1
3575340,1,0,1,0.000,0.000,0.000,0.000,0,0,1303,2819,0,0,1,2,0.00,0.00,0.266,-0.278,9.722,-0.366,-0.366,-0.061,28.15,7.49,7.76,2.5,19.4,1,1,1,1
3585350,1,0,1,0.000,0.000,0.000,0.000,0,0,1303,2819,0,0,1,2,0.00,0.00,0.275,-0.306,9.703,-0.427,-0.305,-0.061,28.13,7.40,7.74,2.5,19.4,1,1,1,1
3595362,1,0,1,0.000,0.000,0.000,0.000,0,0,1303,2819,0,0,1,2,0.00,0.00,0.271,-0.289,9.725,-0.244,-0.366,-0.061,28.15,7.42,7.75,2.5,19.4,1,1,1,1
3605370,1,0,1,0.000,0.000,0.000,0.000,0,0,1303,2819,0,0,1,2,0.00,0.00,0.283,-0.268,9.728,-0.305,-0.366,0.000,28.17,7.40,7.75,2.5,19.4,1,1,1,1
3615370,1,0,1,0.000,0.000,0.000,0.000,0,0,1303,2819,0,0,1,2,0.00,0.00,0.283,-0.277,9.696,-0.366,-0.427,-0.061,28.16,7.40,7.75,2.5,19.4,1,1,1,1
3625377,1,0,1,0.000,0.000,0.000,0.000,0,0,1303,2819,0,0,1,2,0.00,0.00,0.286,-0.285,9.716,-0.305,-0.488,-0.061,28.20,7.40,7.75,2.5,19.4,1,1,1,1
3635377,1,0,1,0.000,0.000,0.000,0.000,0,0,1303,2819,0,0,1,2,0.00,0.00,0.267,-0.303,9.734,-0.366,-0.366,0.000,28.14,7.41,7.75,2.5,19.4,1,1,1,1
3645377,1,0,1,0.000,0.000,0.000,0.000,0,0,1303,2819,0,0,1,2,0.00,0.00,0.276,-0.277,9.707,-0.427,-0.366,-0.061,28.16,7.42,7.75,2.5,19.4,1,1,1,1
3655386,1,0,1,0.000,0.000,0.000,0.000,0,0,1303,2819,0,0,1,2,0.00,0.00,0.268,-0.277,9.726,-0.305,-0.366,-0.061,28.17,7.40,7.75,2.5,19.4,1,1,1,1
3665386,1,0,1,0.000,0.000,0.000,0.000,0,0,1303,2819,0,0,1,2,0.00,0.00,0.245,-0.280,9.710,-0.366,-0.366,-0.122,28.17,7.40,7.75,2.5,19.4,1,1,1,1
3675386,1,0,1,0.000,0.000,0.000,0.000,0,0,1303,2819,0,0,1,2,0.00,0.00,0.270,-0.287,9.693,-0.366,-0.305,-0.061,28.14,7.40,7.75,2.5,19.4,1,1,1,1
3685392,1,0,1,0.000,0.000,0.000,0.000,0,0,1303,2819,0,0,1,2,0.00,0.00,0.283,-0.298,9.708,-0.427,-0.366,-0.061,28.21,7.40,7.75,2.8,21.3,1,1,1,1
3695393,1,0,1,0.000,0.000,0.000,0.000,0,0,1303,2819,0,0,1,2,0.00,0.00,0.266,-0.286,9.723,-0.427,-0.366,-0.061,28.18,7.41,7.75,2.5,19.4,1,1,1,1
3705401,1,0,1,0.000,0.000,0.000,0.000,0,0,1303,2819,0,0,1,2,0.00,0.00,0.254,-0.304,9.725,-0.427,-0.366,-0.061,28.12,7.42,7.75,2.5,19.4,1,1,1,1
3715401,1,0,1,0.000,0.000,0.000,0.000,0,0,1303,2819,0,0,1,2,0.00,0.00,0.262,-0.281,9.701,-0.366,-0.366,-0.061,28.15,7.43,7.75,2.5,19.4,1,1,1,1
3725401,1,0,1,0.000,0.000,0.000,0.000,0,0,1303,2819,0,0,1,2,0.00,0.00,0.277,-0.293,9.689,-0.305,-0.366,-0.122,28.15,7.41,7.75,2.8,21.3,1,1,1,1
3735401,1,0,1,0.000,0.000,0.000,0.000,0,0,1303,2819,0,0,1,2,0.00,0.00,0.262,-0.289,9.688,-0.427,-0.366,-0.061,28.19,7.40,7.75,2.5,19.4,1,1,1,1
3745408,1,0,1,0.000,0.000,0.000,0.000,0,0,1303,2819,0,0,1,2,0.00,0.00,0.254,-0.297,9.707,-0.366,-0.366,-0.122,28.13,7.40,7.75,2.5,19.4,1,1,1,1
3755408,1,0,1,0.000,0.000,0.000,0.000,0,0,1303,2819,0,0,1,2,0.00,0.00,0.280,-0.284,9.702,-0.366,-0.427,-0.122,28.14,7.42,7.75,2.5,19.4,1,1,1,1
3765416,1,0,1,0.000,0.000,0.000,0.000,0,0,1303,2819,0,0,1,2,0.00,0.00,0.265,-0.291,9.699,-0.244,-0.366,-0.061,28.17,7.40,7.75,2.8,21.3,1,1,1,1
3775416,1,0,1,0.000,0.000,0.000,0.000,0,0,1303,2819,0,0,1,2,0.00,0.00,0.263,-0.276,9.700,-0.305,-0.305,-0.061,28.18,7.40,7.75,2.5,19.4,1,1,1,1
3785416,1,0,1,0.000,0.000,0.000,0.000,0,0,1303,2819,0,0,1,2,0.00,0.00,0.287,-0.290,9.691,-0.305,-0.366,-0.122,28.10,7.42,7.75,2.2,17.4,1,1,1,1
3795423,1,0,1,0.000,0.000,0.000,0.000,1,1,1303,2819,0,0,1,2,0.00,0.00,0.278,-0.296,9.673,-0.305,-0.305,-0.061,28.14,7.42,7.75,2.5,19.4,1,1,1,1
3805423,1,0,1,0.000,0.000,0.000,0.000,1,1,1303,2819,0,0,1,2,0.00,0.00,0.265,-0.289,9.732,-0.366,-0.305,0.000,28.19,7.42,7.75,2.5,19.4,1,1,1,1
3815423,1,0,1,0.000,0.000,0.000,0.000,1,1,1303,2819,0,0,1,2,0.00,0.00,0.272,-0.282,9.744,-0.366,-0.427,-0.122,28.16,7.40,7.75,2.5,19.4,1,1,1,1
3825423,1,0,1,0.000,0.000,0.000,0.000,1,1,1303,2819,0,0,1,2,0.00,0.00,0.274,-0.282,9.707,-0.305,-0.427,-0.061,28.18,7.42,7.75,2.2,17.4,1,1,1,1
3835423,1,0,1,0.000,0.000,0.000,0.000,1,1,1303,2819,0,0,1,2,0.00,0.00,0.256,-0.284,9.699,-0.366,-0.366,-0.061,28.18,7.42,7.75,2.5,19.4,1,1,1,1
3845423,1,0,1,0.000,0.000,0.000,0.000,1,1,1303,2819,0,0,1,2,0.00,0.00,0.264,-0.296,9.709,-0.305,-0.366,-0.122,28.15,7.42,7.75,2.5,19.4,1,1,1,1
3855423,1,0,1,0.000,0.000,0.000,0.000,1,1,1303,2819,0,0,1,2,0.00,0.00,0.263,-0.275,9.709,-0.366,-0.427,-0.122,28.17,7.37,7.75,2.2,17.4,1,1,1,1
3865431,1,0,1,0.000,0.000,0.000,0.000,1,1,1303,2819,0,0,1,2,0.00,0.00,0.269,-0.283,9.716,-0.305,-0.366,-0.122,28.12,7.41,7.75,2.5,19.4,1,1,1,1
3875438,1,0,1,0.000,0.000,0.000,0.000,1,1,1303,2819,0,0,1,2,0.00,0.00,0.259,-0.300,9.707,-0.244,-0.305,0.000,28.19,7.47,7.75,2.5,19.4,1,1,1,1
3885438,1,0,1,0.000,0.000,0.000,0.000,1,1,1303,2819,0,0,1,2,0.00,0.00,0.270,-0.297,9.729,-0.366,-0.366,0.000,28.18,7.46,7.76,2.2,17.5,1,1,1,1
3895438,1,0,1,0.000,0.000,0.000,0.000,1,1,1303,2819,0,0,1,2,0.00,0.00,0.276,-0.272,9.714,-0.305,-0.427,-0.061,28.15,7.47,7.76,2.5,19.4,1,1,1,1
3905438,1,0,1,0.000,0.000,0.000,0.000,1,1,1303,2819,0,0,1,2,0.00,0.00,0.240,-0.300,9.700,-0.305,-0.366,-0.061,28.14,7.46,7.76,2.5,19.4,1,1,1,1
3915438,1,0,1,0.000,0.000,0.000,0.000,1,1,1303,2819,0,0,1,2,0.00,0.00,0.277,-0.309,9.714,-0.427,-0.366,-0.061,28.11,7.48,7.76,2.2,17.5,1,1,1,1
3925446,1,0,1,0.000,0.000,0.000,0.000,1,1,1303,2819,0,0,1,2,0.00,0.00,0.291,-0.296,9.694,-0.427,-0.366,-0.061,28.14,7.46,7.76,2.5,19.4,1,1,1,1
3935453,1,0,1,0.000,0.000,0.000,0.000,1,1,1303,2819,0,0,1,2,0.00,0.00,0.258,-0.293,9.709,-0.427,-0.427,-0.061,28.18,7.49,7.76,2.2,17.5,1,1,1,1
3945462,1,0,1,0.000,0.000,0.000,0.000,1,1,1303,2819,0,0,1,2,0.00,0.00,0.254,-0.297,9.722,-0.366,-0.366,-0.122,28.17,7.49,7.76,2.5,19.4,1,1,1,1
3955468,1,0,1,0.000,0.000,0.000,0.000,1,1,1303,2819,0,0,1,2,0.00,0.00,0.267,-0.314,9.734,-0.305,-0.305,-0.122,28.14,7.49,7.76,2.2,17.5,1,1,1,1
3965468,1,0,1,0.000,0.000,0.000,0.000,1,1,1303,2819,0,0,1,2,0.00,0.00,0.272,-0.297,9.710,-0.366,-0.427,0.000,28.20,7.47,7.76,2.5,19.4,1,1,1,1
3975468,1,0,1,0.000,0.000,0.000,0.000,1,1,1303,2819,0,0,1,2,0.00,0.00,0.268,-0.293,9.696,-0.366,-0.366,-0.061,28.19,7.43,7.76,2.2,17.5,1,1,1,1
3985468,1,0,1,0.000,0.000,0.000,0.000,1,1,1303,2819,0,0,1,2,0.00,0.00,0.268,-0.277,9.700,-0.305,-0.366,-0.183,28.19,7.50,7.76,2.5,19.4,1,1,1,1
3995468,1,0,1,0.000,0.000,0.000,0.000,1,1,1303,2819,0,0,1,2,0.00,0.00,0.272,-0.278,9.707,-0.305,-0.366,-0.122,28.13,7.47,7.76,2.2,17.5,1,1,1,1
4005468,1,0,1,0.000,0.000,0.000,0.000,1,1,1303,2819,0,0,1,2,0.00,0.00,0.262,-0.291,9.709,-0.305,-0.366,-0.122,28.18,7.50,7.75,2.5,19.4,1,1,1,1
4015468,1,0,1,0.000,0.000,0.000,0.000,1,1,1303,2819,0,0,1,2,0.00,0.00,0.259,-0.311,9.698,-0.244,-0.366,-0.122,28.18,7.46,7.75,2.5,19.4,1,1,1,1
4025468,1,0,1,0.000,0.000,0.000,0.000,1,1,1303,2819,0,0,1,2,0.00,0.00,0.265,-0.286,9.709,-0.305,-0.305,-0.061,28.16,7.49,7.76,2.5,19.4,1,1,1,1
4035468,1,0,1,0.000,0.000,0.000,0.000,1,1,1303,2819,0,0,1,2,0.00,0.00,0.284,-0.282,9.717,-0.305,-0.244,-0.122,28.12,7.47,7.76,2.2,17.5,1,1,1,1
4045468,1,0,1,0.000,0.000,0.000,0.000,1,1,1303,2819,0,0,1,2,0.00,0.00,0.274,-0.286,9.717,-0.305,-0.366,-0.061,28.17,7.45,7.75,2.5,19.4,1,1,1,1
4055477,1,0,1,0.000,0.000,0.000,0.000,1,1,1303,2819,0,0,1,2,0.00,0.00,0.266,-0.288,9.716,-0.366,-0.366,0.000,28.15,7.47,7.75,2.2,17.4,1,1,1,1
4065477,1,0,1,0.000,0.000,0.000,0.000,1,1,1303,2819,0,0,1,2,0.00,0.00,0.270,-0.299,9.708,-0.305,-0.305,-0.061,28.16,7.46,7.75,2.2,17.4,1,1,1,1
4075477,1,0,1,0.000,0.000,0.000,0.000,1,1,1303,2819,0,0,1,2,0.00,0.00,0.254,-0.281,9.696,-0.305,-0.366,-0.122,28.15,7.49,7.76,2.5,19.4,1,1,1,1
4085477,1,0,1,0.000,0.000,0.000,0.000,1,1,1303,2819,0,0,1,2,0.00,0.00,0.257,-0.297,9.728,-0.427,-0.305,0.000,28.19,7.49,7.76,2.5,19.4,1,1,1,1
4095484,1,0,1,0.000,0.000,0.000,0.000,1,1,1303,2819,0,0,1,2,0.00,0.00,0.286,-0.318,9.695,-0.427,-0.366,0.000,28.13,7.46,7.76,2.5,19.4,1,1,1,1
4105499,1,0,1,0.000,0.000,0.000,0.000,1,1,1303,2819,0,0,1,2,0.00,0.00,0.273,-0.309,9.703,-0.427,-0.427,-0.061,28.15,7.47,7.76,2.2,17.5,1,1,1,1
4115499,1,0,1,0.000,0.000,0.000,0.000,1,1,1303,2819,0,0,1,2,0.00,0.00,0.262,-0.305,9.686,-0.366,-0.366,-0.061,28.17,7.46,7.76,2.2,17.5,1,1,1,1
4125499,1,0,1,0.000,0.000,0.000,0.000,1,1,1303,2819,0,0,1,2,0.00,0.00,0.253,-0.300,9.676,-0.305,-0.366,-0.122,28.18,7.47,7.75,2.5,19.4,1,1,1,1
4135507,1,0,1,0.000,0.000,0.000,0.000,1,1,1303,2819,0,0,1,2,0.00,0.00,0.260,-0.305,9.720,-0.366,-0.305,-0.061,28.17,7.50,7.76,2.5,19.4,1,1,1,1
4145514,1,0,1,0.000,0.000,0.000,0.000,1,1,1303,2819,0,0,1,2,0.00,0.00,0.282,-0.299,9.723,-0.244,-0.366,-0.061,28.13,7.48,7.75,2.5,19.4,1,1,1,1
4155514,1,0,1,0.000,0.000,0.000,0.000,1,1,1303,2819,0,0,1,2,0.00,0.00,0.266,-0.280,9.701,-0.305,-0.366,-0.122,28.16,7.49,7.75,2.5,19.4,1,1,1,1
4165526,1,0,1,0.000,0.000,0.000,0.000,1,1,1303,2819,0,0,1,2,0.00,0.00,0.267,-0.314,9.723,-0.427,-0.366,-0.122,28.17,7.46,7.74,2.5,19.4,1,1,1,1
4175537,1,0,1,0.000,0.000,0.000,0.000,1,1,1303,2819,0,0,1,2,0.00,0.00,0.275,-0.305,9.732,-0.305,-0.366,-0.061,28.19,7.47,7.76,2.5,19.4,1,1,1,1
4185544,1,0,1,0.000,0.000,0.000,0.000,1,1,1303,2819,0,0,1,2,0.00,0.00,0.278,-0.281,9.713,-0.366,-0.366,-0.122,28.12,7.49,7.76,2.5,19.4,1,1,1,1
4195553,1,0,1,0.000,0.000,0.000,0.000,1,1,1303,2819,0,0,1,2,0.00,0.00,0.277,-0.287,9.691,-0.366,-0.305,-0.061,28.12,7.49,7.76,2.5,19.4,1,1,1,1
4205559,1,0,1,0.000,0.000,0.000,0.000,1,1,1303,2819,0,0,1,2,0.00,0.00,0.271,-0.291,9.725,-0.366,-0.366,-0.122,28.17,7.46,7.75,2.5,19.4,1,1,1,1
4215559,1,0,1,0.000,0.000,0.000,0.000,1,1,1303,2819,0,0,1,2,0.00,0.00,0.260,-0.306,9.731,-0.366,-0.427,-0.122,28.19,7.49,7.76,2.5,19.4,1,1,1,1
4225559,1,0,1,0.000,0.000,0.000,0.000,1,1,1303,2819,0,0,1,2,0.00,0.00,0.276,-0.311,9.684,-0.366,-0.427,-0.061,28.17,7.46,7.75,2.2,17.4,1,1,1,1
4235559,1,0,1,0.000,0.000,0.000,0.000,1,1,1303,2819,0,0,1,2,0.00,0.00,0.255,-0.301,9.725,-0.244,-0.427,0.000,28.15,7.48,7.76,2.5,19.4,1,1,1,1
4245559,1,0,1,0.000,0.000,0.000,0.000,1,1,1303,2819,0,0,1,2,0.00,0.00,0.278,-0.305,9.725,-0.366,-0.366,-0.061,28.14,7.50,7.76,2.5,19.4,1,1,1,1
4255568,1,0,1,0.000,0.000,0.000,0.000,1,1,1303,2819,0,0,1,2,0.00,0.00,0.263,-0.324,9.732,-0.427,-0.427,0.000,28.15,7.47,7.76,2.5,19.4,1,1,1,1
4265574,1,0,1,0.000,0.000,0.000,0.000,1,1,1303,2819,0,0,1,2,0.00,0.00,0.260,-0.306,9.704,-0.305,-0.366,-0.061,28.12,7.50,7.75,2.5,19.4,1,1,1,1
4275583,1,0,1,0.000,0.000,0.000,0.000,1,1,1303,2819,0,0,1,2,0.00,0.00,0.281,-0.294,9.710,-0.366,-0.366,-0.061,28.17,7.47,7.75,2.2,17.4,1,1,1,1
4285590,1,0,1,0.000,0.000,0.000,0.000,1,1,1303,2819,0,0,1,2,0.00,0.00,0.271,-0.300,9.695,-0.305,-0.427,-0.061,28.21,7.49,7.76,2.2,17.5,1,1,1,1
4295594,1,0,1,0.000,0.000,0.000,0.000,1,1,1303,2819,0,0,1,2,0.00,0.00,0.257,-0.311,9.717,-0.427,-0.366,-0.122,28.17,7.46,7.74,2.5,19.4,1,1,1,1
4305605,1,0,1,0.000,0.000,0.000,0.000,1,1,1303,2819,0,0,1,2,0.00,0.00,0.267,-0.323,9.708,-0.427,-0.305,-0.061,28.16,7.47,7.75,2.5,19.4,1,1,1,1
4315613,1,0,1,0.000,0.000,0.000,0.000,1,1,1303,2819,0,0,1,2,0.00,0.00,0.250,-0.300,9.726,-0.427,-0.366,-0.061,28.18,7.47,7.76,2.5,19.4,1,1,1,1
4325620,1,0,1,0.000,0.000,0.000,0.000,1,1,1303,2819,0,0,1,2,0.00,0.00,0.277,-0.311,9.731,-0.244,-0.427,-0.122,28.15,7.49,7.75,2.5,19.4,1,1,1,1
4335628,1,0,1,0.000,0.000,0.000,0.000,1,1,1303,2819,0,0,1,2,0.00,0.00,0.265,-0.311,9.718,-0.305,-0.427,-0.061,28.18,7.49,7.76,2.5,19.4,1,1,1,1
4345628,1,0,1,0.000,0.000,0.000,0.000,1,1,1303,2819,0,0,1,2,0.00,0.00,0.262,-0.293,9.720,-0.305,-0.366,-0.122,28.13,7.49,7.76,2.5,19.4,1,1,1,1
4355628,1,0,1,0.000,0.000,0.000,0.000,1,1,1303,2819,0,0,1,2,0.00,0.00,0.290,-0.298,9.704,-0.305,-0.305,-0.122,28.16,7.49,7.76,2.5,19.4,1,1,1,1
4365635,1,0,1,0.000,0.000,0.000,0.000,1,1,1303,2819,0,0,1,2,0.00,0.00,0.296,-0.306,9.691,-0.305,-0.305,-0.061,28.16,7.49,7.76,2.5,19.4,1,1,1,1
4375635,1,0,1,0.000,0.000,0.000,0.000,1,1,1303,2819,0,0,1,2,0.00,0.00,0.277,-0.300,9.701,-0.244,-0.366,-0.061,28.20,7.47,7.76,2.2,17.5,1,1,1,1
4385644,1,0,1,0.000,0.000,0.000,0.000,1,1,1303,2819,0,0,1,2,0.00,0.00,0.261,-0.309,9.728,-0.366,-0.366,-0.061,28.14,7.49,7.76,2.5,19.4,1,1,1,1
4395651,1,0,1,0.000,0.000,0.000,0.000,1,1,1303,2819,0,0,1,2,0.00,0.00,0.266,-0.297,9.707,-0.427,-0.305,-0.061,28.17,7.46,7.76,2.2,17.5,1,1,1,1
4405666,1,0,1,0.000,0.000,0.000,0.000,1,1,1303,2819,0,0,1,2,0.00,0.00,0.272,-0.299,9.729,-0.366,-0.305,-0.122,28.17,7.49,7.76,2.5,19.4,1,1,1,1
4415666,1,0,1,0.000,0.000,0.000,0.000,1,1,1303,2819,0,0,1,2,0.00,0.00,0.275,-0.314,9.720,-0.305,-0.427,0.000,28.16,7.49,7.75,2.5,19.4,1,1,1,1
4425674,1,0,1,0.000,0.000,0.000,0.000,1,1,1303,2819,0,0,1,2,0.00,0.00,0.257,-0.300,9.714,-0.305,-0.366,0.000,28.18,7.47,7.76,2.5,19.4,1,1,1,1
4435674,1,0,1,0.000,0.000,0.000,0.000,1,1,1303,2819,0,0,1,2,0.00,0.00,0.279,-0.292,9.688,-0.366,-0.305,-0.183,28.19,7.48,7.76,2.5,19.4,1,1,1,1
4445674,1,0,1,0.000,0.000,0.000,0.000,1,1,1303,2819,0,0,1,2,0.00,0.00,0.280,-0.286,9.714,-0.366,-0.305,0.000,28.15,7.47,7.75,2.5,19.4,1,1,1,1
4455681,1,0,1,0.000,0.000,0.000,0.000,1,1,1303,2819,0,0,1,2,0.00,0.00,0.250,-0.309,9.704,-0.366,-0.427,0.000,28.19,7.47,7.76,2.5,19.4,1,1,1,1
4465689,1,0,1,0.000,0.000,0.000,0.000,1,1,1303,2819,0,0,1,2,0.00,0.00,0.252,-0.286,9.725,-0.366,-0.427,-0.122,28.16,7.46,7.76,2.5,19.4,1,1,1,1
4475689,1,0,1,0.000,0.000,0.000,0.000,1,1,1303,2819,0,0,1,2,0.00,0.00,0.276,-0.302,9.738,-0.244,-0.366,-0.061,28.18,7.47,7.75,2.5,19.4,1,1,1,1
4485696,1,0,1,0.000,0.000,0.000,0.000,1,1,1303,2819,0,0,1,2,0.00,0.00,0.267,-0.309,9.719,-0.366,-0.366,0.000,28.20,7.47,7.76,2.5,19.4,1,1,1,1
4495696,1,0,1,0.000,0.000,0.000,0.000,1,1,1303,2819,0,0,1,2,0.00,0.00,0.265,-0.312,9.720,-0.366,-0.366,-0.061,28.16,7.48,7.75,2.8,21.3,1,1,1,1
4505704,1,0,1,0.000,0.000,0.000,0.000,1,1,1303,2819,0,0,1,2,0.00,0.00,0.267,-0.306,9.704,-0.305,-0.305,-0.061,28.21,7.50,7.75,2.2,17.4,1,1,1,1
4515704,1,0,1,0.000,0.000,0.000,0.000,1,1,1303,2819,0,0,1,2,0.00,0.00,0.283,-0.310,9.688,-0.366,-0.366,-0.061,28.21,7.49,7.76,2.5,19.4,1,1,1,1
4525704,1,0,1,0.000,0.000,0.000,0.000,1,1,1303,2819,0,0,1,2,0.00,0.00,0.275,-0.321,9.720,-0.427,-0.366,-0.183,28.13,7.48,7.76,2.5,19.4,1,1,1,1
4535704,1,0,1,0.000,0.000,0.000,0.000,1,1,1303,2819,0,0,1,2,0.00,0.00,0.275,-0.309,9.733,-0.366,-0.366,-0.183,28.19,7.53,7.76,2.5,19.4,1,1,1,1
4545709,1,0,1,0.000,0.000,0.000,0.000,1,1,1303,2819,0,0,1,2,0.00,0.00,0.267,-0.303,9.702,-0.244,-0.366,-0.061,28.19,7.50,7.76,2.5,19.4,1,1,1,1
4555724,1,0,1,0.000,0.000,0.000,0.000,1,1,1303,2819,0,0,1,2,0.00,0.00,0.256,-0.300,9.717,-0.305,-0.366,-0.061,28.22,7.46,7.76,2.5,19.4,1,1,1,1
4565724,1,0,1,0.000,0.000,0.000,0.000,1,1,1303,2819,0,0,1,2,0.00,0.00,0.262,-0.297,9.715,-0.427,-0.366,-0.061,28.19,7.50,7.76,2.5,19.4,1,1,1,1
4575724,1,0,1,0.000,0.000,0.000,0.000,1,1,1303,2819,0,0,1,2,0.00,0.00,0.265,-0.289,9.710,-0.366,-0.305,0.000,28.19,7.46,7.76,2.5,19.4,1,1,1,1
4585725,1,0,1,0.000,0.000,0.000,0.000,1,1,1303,2819,0,0,1,2,0.00,0.00,0.254,-0.282,9.719,-0.305,-0.366,-0.061,28.14,7.45,7.75,2.2,17.4,1,1,1,1
4595740,1,0,1,0.000,0.000,0.000,0.000,1,1,1303,2819,0,0,1,2,0.00,0.00,0.262,-0.280,9.719,-0.366,-0.366,-0.061,28.15,7.49,7.76,2.5,19.4,1,1,1,1
4605746,1,0,1,0.000,0.000,0.000,0.000,1,1,1303,2819,0,0,1,2,0.00,0.00,0.248,-0.305,9.716,-0.305,-0.366,-0.061,28.16,7.46,7.76,2.5,19.4,1,1,1,1
4615754,1,0,1,0.000,0.000,0.000,0.000,1,1,1303,2819,0,0,1,2,0.00,0.00,0.272,-0.308,9.717,-0.305,-0.366,-0.061,28.18,7.48,7.76,2.5,19.4,1,1,1,1
4625754,1,0,1,0.000,0.000,0.000,0.000,1,1,1303,2819,0,0,1,2,0.00,0.00,0.288,-0.290,9.699,-0.305,-0.366,-0.061,28.17,7.49,7.76,2.5,19.4,1,1,1,1
4635761,1,0,1,0.000,0.000,0.000,0.000,1,1,1303,2819,0,0,1,2,0.00,0.00,0.277,-0.287,9.697,-0.427,-0.366,-0.061,28.17,7.49,7.76,2.5,19.4,1,1,1,1
4645761,1,0,1,0.000,0.000,0.000,0.000,1,1,1303,2819,0,0,1,2,0.00,0.00,0.261,-0.309,9.674,-0.366,-0.427,-0.061,28.10,7.44,7.76,2.5,19.4,1,1,1,1
4655761,1,0,1,0.000,0.000,0.000,0.000,1,1,1303,2819,0,0,1,2,0.00,0.00,0.267,-0.295,9.695,-0.427,-0.427,0.000,28.11,7.49,7.76,2.5,19.4,1,1,1,1
4665761,1,0,1,0.000,0.000,0.000,0.000,1,1,1303,2819,0,0,1,2,0.00,0.00,0.269,-0.299,9.700,-0.427,-0.427,0.000,28.14,7.45,7.76,2.2,17.5,1,1,1,1
4675770,1,0,1,0.000,0.000,0.000,0.000,1,1,1303,2819,0,0,1,2,0.00,0.00,0.284,-0.283,9.692,-0.427,-0.427,-0.061,28.15,7.49,7.75,2.2,17.4,1,1,1,1
4685770,1,0,1,0.000,0.000,0.000,0.000,1,1,1303,2819,0,0,1,2,0.00,0.00,0.274,-0.273,9.711,-0.305,-0.488,-0.061,28.19,7.49,7.76,2.2,17.5,1,1,1,1
4695777,1,0,1,0.000,0.000,0.000,0.000,1,1,1303,2819,0,0,1,2,0.00,0.00,0.267,-0.295,9.722,-0.366,-0.305,0.000,28.16,7.47,7.76,2.5,19.4,1,1,1,1
4705792,1,0,1,0.000,0.000,0.000,0.000,1,1,1303,2819,0,0,1,2,0.00,0.00,0.283,-0.299,9.722,-0.305,-0.366,-0.061,28.15,7.50,7.75,2.2,17.4,1,1,1,1
4715800,1,0,1,0.000,0.000,0.000,0.000,1,1,1303,2819,0,0,1,2,0.00,0.00,0.267,-0.271,9.735,-0.366,-0.427,-0.122,28.18,7.42,7.76,2.5,19.4,1,1,1,1
4725806,1,0,1,0.000,0.000,0.000,0.000,1,1,1303,2819,0,0,1,2,0.00,0.00,0.275,-0.275,9.705,-0.366,-0.305,-0.061,28.18,7.49,7.76,2.2,17.5,1,1,1,1
4735807,1,0,1,0.000,0.000,0.000,0.000,1,1,1303,2819,0,0,1,2,0.00,0.00,0.280,-0.293,9.710,-0.366,-0.427,-0.061,28.14,7.43,7.76,2.5,19.4,1,1,1,1
4745815,1,0,1,0.000,0.000,0.000,0.000,1,1,1303,2819,0,0,1,2,0.00,0.00,0.279,-0.310,9.716,-0.305,-0.427,-0.061,28.16,7.46,7.76,2.5,19.4,1,1,1,1
4755815,1,0,1,0.000,0.000,0.000,0.000,1,1,1303,2819,0,0,1,2,0.00,0.00,0.271,-0.280,9.698,-0.366,-0.366,-0.061,28.20,7.42,7.76,2.5,19.4,1,1,1,1
4765815,1,0,1,0.000,0.000,0.000,0.000,1,1,1303,2819,0,0,1,2,0.00,0.00,0.266,-0.305,9.697,-0.305,-0.244,-0.122,28.20,7.42,7.76,2.5,19.4,1,1,1,1
4775815,1,0,1,0.000,0.000,0.000,0.000,1,1,1303,2819,0,0,1,2,0.00,0.00,0.268,-0.277,9.679,-0.244,-0.244,0.000,28.17,7.45,7.76,2.5,19.4,1,1,1,1
4785822,1,0,1,0.000,0.000,0.000,0.000,1,1,1303,2819,0,0,1,2,0.00,0.00,0.254,-0.276,9.706,-0.427,-0.366,0.000,28.14,7.44,7.75,2.2,17.4,1,1,1,1
4795822,1,0,1,0.000,0.000,0.000,0.000,1,1,1303,2819,0,0,1,2,0.00,0.00,0.279,-0.294,9.686,-0.366,-0.366,-0.122,28.17,7.45,7.76,2.2,17.5,1,1,1,1
4805822,1,0,1,0.000,0.000,0.000,0.000,1,1,1303,2819,0,0,1,2,0.00,0.00,0.266,-0.275,9.698,-0.183,-0.366,-0.183,28.19,7.44,7.76,2.2,17.5,1,1,1,1
4815822,1,0,1,0.000,0.000,0.000,0.000,1,1,1303,2819,0,0,1,2,0.00,0.00,0.281,-0.289,9.731,-0.305,-0.366,-0.122,28.16,7.43,7.76,2.8,21.3,1,1,1,1
4825830,1,0,1,0.000,0.000,0.000,0.000,1,1,1303,2819,0,0,1,2,0.00,0.00,0.269,-0.294,9.704,-0.305,-0.427,-0.061,28.15,7.44,7.76,2.5,19.4,1,1,1,1
4835830,1,0,1,0.000,0.000,0.000,0.000,1,1,1303,2819,0,0,1,2,0.00,0.00,0.271,-0.311,9.692,-0.366,-0.427,0.000,28.17,7.46,7.76,2.5,19.4,1,1,1,1
4845837,1,0,1,0.000,0.000,0.000,0.000,1,1,1303,2819,0,0,1,2,0.00,0.00,0.277,-0.306,9.704,-0.427,-0.427,-0.061,28.21,7.46,7.76,2.5,19.4,1,1,1,1
4855837,1,0,1,0.000,0.000,0.000,0.000,1,1,1303,2819,0,0,1,2,0.00,0.00,0.279,-0.292,9.700,-0.427,-0.366,-0.061,28.17,7.46,7.76,2.5,19.4,1,1,1,1
4865837,1,0,1,0.000,0.000,0.000,0.000,1,1,1303,2819,0,0,1,2,0.00,0.00,0.260,-0.315,9.678,-0.305,-0.366,-0.061,28.17,7.46,7.76,2.5,19.4,1,1,1,1
4875837,1,0,1,0.000,0.000,0.000,0.000,1,1,1303,2819,0,0,1,2,0.00,0.00,0.272,-0.308,9.697,-0.305,-0.366,-0.061,28.16,7.46,7.75,2.5,19.4,1,1,1,1
4885846,1,0,1,0.000,0.000,0.000,0.000,1,1,1303,2819,0,0,1,2,0.00,0.00,0.265,-0.283,9.726,-0.305,-0.366,-0.122,28.15,7.44,7.76,2.5,19.4,1,1,1,1
4895846,1,0,1,0.000,0.000,0.000,0.000,1,1,1303,2819,0,0,1,2,0.00,0.00,0.276,-0.287,9.726,-0.305,-0.305,0.000,28.15,7.46,7.76,2.5,19.4,1,1,1,1
4905852,1,0,1,0.000,0.000,0.000,0.000,1,1,1303,2819,0,0,1,2,0.00,0.00,0.263,-0.294,9.716,-0.305,-0.305,-0.061,28.19,7.42,7.76,2.5,19.4,1,1,1,1
4915852,1,0,1,0.000,0.000,0.000,0.000,1,1,1303,2819,0,0,1,2,0.00,0.00,0.269,-0.297,9.692,-0.305,-0.366,-0.061,28.15,7.49,7.76,2.5,19.4,1,1,1,1
4925852,1,0,1,0.000,0.000,0.000,0.000,1,1,1303,2819,0,0,1,2,0.00,0.00,0.277,-0.295,9.712,-0.366,-0.366,-0.061,28.13,7.46,7.76,2.5,19.4,1,1,1,1
4935861,1,0,1,0.000,0.000,0.000,0.000,1,1,1303,2819,0,0,1,2,0.00,0.00,0.257,-0.293,9.719,-0.427,-0.366,0.000,28.16,7.48,7.76,2.5,19.4,1,1,1,1
4945861,1,0,1,0.000,0.000,0.000,0.000,1,1,1303,2819,0,0,1,2,0.00,0.00,0.267,-0.309,9.706,-0.427,-0.366,0.000,28.13,7.48,7.76,2.5,19.4,1,1,1,1
4955861,1,0,1,0.000,0.000,0.000,0.000,1,1,1303,2819,0,0,1,2,0.00,0.00,0.264,-0.287,9.729,-0.305,-0.427,-0.061,28.18,7.46,7.76,2.5,19.4,1,1,1,1
4965861,1,0,1,0.000,0.000,0.000,0.000,1,1,1303,2819,0,0,1,2,0.00,0.00,0.256,-0.281,9.713,-0.305,-0.244,-0.061,28.19,7.49,7.75,2.2,17.4,1,1,1,1
4975861,1,0,1,0.000,0.000,0.000,0.000,1,1,1303,2819,0,0,1,2,0.00,0.00,0.272,-0.272,9.706,-0.366,-0.366,0.000,28.20,7.45,7.76,2.5,19.4,1,1,1,1
4985868,1,0,1,0.000,0.000,0.000,0.000,1,1,1303,2819,0,0,1,2,0.00,0.00,0.285,-0.281,9.743,-0.366,-0.366,-0.061,28.13,7.48,7.76,2.2,17.5,1,1,1,1
4995876,1,0,1,0.000,0.000,0.000,0.000,1,1,1303,2819,0,0,1,2,0.00,0.00,0.251,-0.283,9.710,-0.366,-0.366,-0.061,28.14,7.47,7.75,2.5,19.4,1,1,1,1
5005882,1,0,1,0.000,0.000,0.000,0.000,1,1,1303,2819,0,0,1,2,0.00,0.00,0.285,-0.293,9.713,-0.244,-0.366,-0.061,28.18,7.46,7.75,2.5,19.4,1,1,1,1
5015891,1,0,1,0.000,0.000,0.000,0.000,1,1,1303,2819,0,0,1,2,0.00,0.00,0.278,-0.289,9.717,-0.366,-0.366,-0.061,28.17,7.50,7.75,2.5,19.4,1,1,1,1
5025891,1,0,1,0.000,0.000,0.000,0.000,1,1,1303,2819,0,0,1,2,0.00,0.00,0.281,-0.296,9.710,-0.366,-0.427,-0.061,28.14,7.47,7.76,2.5,19.4,1,1,1,1
5035891,1,0,1,0.000,0.000,0.000,0.000,1,1,1303,2819,0,0,1,2,0.00,0.00,0.275,-0.283,9.719,-0.366,-0.427,0.000,28.23,7.46,7.76,2.5,19.4,1,1,1,1
5045898,1,0,1,0.000,0.000,0.000,0.000,1,1,1303,2819,0,0,1,2,0.00,0.00,0.274,-0.297,9.705,-0.366,-0.427,0.000,28.16,7.47,7.76,2.5,19.4,1,1,1,1
5055906,1,0,1,0.000,0.000,0.000,0.000,1,1,1303,2819,0,0,1,2,0.00,0.00,0.282,-0.302,9.738,-0.366,-0.427,-0.061,28.21,7.49,7.76,2.5,19.4,1,1,1,1
5065906,1,0,1,0.000,0.000,0.000,0.000,1,1,1303,2819,0,0,1,2,0.00,0.00,0.272,-0.283,9.738,-0.305,-0.305,-0.122,28.18,7.46,7.76,2.5,19.4,1,1,1,1
5075906,1,0,1,0.000,0.000,0.000,0.000,1,1,1303,2819,0,0,1,2,0.00,0.00,0.270,-0.277,9.717,-0.305,-0.305,-0.061,28.18,7.46,7.76,2.5,19.4,1,1,1,1
5085913,1,0,1,0.000,0.000,0.000,0.000,1,1,1303,2819,0,0,1,2,0.00,0.00,0.266,-0.296,9.721,-0.427,-0.366,-0.061,28.19,7.45,7.76,2.5,19.4,1,1,1,1
5095922,1,0,1,0.000,0.000,0.000,0.000,1,1,1303,2819,0,0,1,2,0.00,0.00,0.268,-0.290,9.704,-0.366,-0.427,0.000,28.16,7.47,7.76,2.5,19.4,1,1,1,1
5105928,1,0,1,0.000,0.000,0.000,0.000,1,1,1303,2819,0,0,1,2,0.00,0.00,0.271,-0.281,9.703,-0.305,-0.366,0.000,28.14,7.47,7.76,2.5,19.4,1,1,1,1
5115928,1,0,1,0.000,0.000,0.000,0.000,1,1,1303,2819,0,0,1,2,0.00,0.00,0.281,-0.287,9.722,-0.427,-0.305,-0.061,28.20,7.46,7.76,2.2,17.5,1,1,1,1
5125937,1,0,1,0.000,0.000,0.000,0.000,1,1,1303,2819,0,0,1,2,0.00,0.00,0.259,-0.303,9.723,-0.305,-0.427,-0.061,28.17,7.47,7.76,2.2,17.5,1,1,1,1
5135937,1,0,1,0.000,0.000,0.000,0.000,1,1,1303,2819,0,0,1,2,0.00,0.00,0.251,-0.283,9.722,-0.366,-0.427,-0.061,28.15,7.44,7.76,2.5,19.4,1,1,1,1
5145944,1,0,1,0.000,0.000,0.000,0.000,1,1,1303,2819,0,0,1,2,0.00,0.00,0.286,-0.292,9.703,-0.427,-0.427,-0.061,28.15,7.49,7.76,2.5,19.4,1,1,1,1
5155958,1,0,1,0.000,0.000,0.000,0.000,1,1,1303,2819,0,0,1,2,0.00,0.00,0.266,-0.285,9.722,-0.366,-0.427,-0.061,28.14,7.47,7.76,2.5,19.4,1,1,1,1
5165962,1,0,1,0.000,0.000,0.000,0.000,1,1,1303,2819,0,0,1,2,0.00,0.00,0.260,-0.278,9.713,-0.305,-0.366,0.000,28.21,7.48,7.75,2.2,17.4,1,1,1,1
5175967,1,0,1,0.000,0.000,0.000,0.000,1,1,1303,2819,0,0,1,2,0.00,0.00,0.287,-0.280,9.701,-0.244,-0.427,0.000,28.11,7.44,7.76,2.5,19.4,1,1,1,1
5185973,1,0,1,0.000,0.000,0.000,0.000,1,1,1303,2819,0,0,1,2,0.00,0.00,0.263,-0.279,9.738,-0.366,-0.366,-0.122,28.18,7.48,7.76,2.5,19.4,1,1,1,1
5195982,1,0,1,0.000,0.000,0.000,0.000,1,1,1303,2819,0,0,1,2,0.00,0.00,0.262,-0.291,9.708,-0.427,-0.366,-0.122,28.13,7.46,7.76,2.8,21.3,1,1,1,1
5205989,1,0,1,0.000,0.000,0.000,0.000,1,1,1303,2819,0,0,1,2,0.00,0.00,0.267,-0.299,9.710,-0.366,-0.366,-0.061,28.17,7.49,7.76,2.5,19.4,1,1,1,1
5215997,1,0,1,0.000,0.000,0.000,0.000,1,1,1303,2819,0,0,1,2,0.00,0.00,0.248,-0.287,9.723,-0.305,-0.366,-0.061,28.14,7.47,7.76,2.5,19.4,1,1,1,1
5226004,1,0,1,0.000,0.000,0.000,0.000,1,1,1303,2819,0,0,1,2,0.00,0.00,0.272,-0.279,9.732,-0.427,-0.427,-0.061,28.15,7.49,7.76,2.5,19.4,1,1,1,1
5236012,1,0,1,0.000,0.000,0.000,0.000,1,1,1303,2819,0,0,1,2,0.00,0.00,0.271,-0.285,9.716,-0.366,-0.366,0.000,28.17,7.47,7.76,2.2,17.5,1,1,1,1
5246013,1,0,1,0.000,0.000,0.000,0.000,1,1,1303,2819,0,0,1,2,0.00,0.00,0.268,-0.289,9.706,-0.305,-0.305,0.000,28.16,7.47,7.76,2.8,21.3,1,1,1,1
5256028,1,0,1,0.000,0.000,0.000,0.000,1,1,1303,2819,0,0,1,2,0.00,0.00,0.287,-0.287,9.711,-0.427,-0.427,0.000,28.16,7.50,7.76,2.2,17.5,1,1,1,1
5266034,1,0,1,0.000,0.000,0.000,0.000,1,1,1303,2819,0,0,1,2,0.00,0.00,0.268,-0.292,9.717,-0.305,-0.488,0.000,28.16,7.46,7.76,2.5,19.4,1,1,1,1
5276043,1,0,1,0.000,0.000,0.000,0.000,1,1,1303,2819,0,0,1,2,0.00,0.00,0.260,-0.283,9.705,-0.305,-0.366,-0.061,28.18,7.48,7.76,2.5,19.4,1,1,1,1
5286043,1,0,1,0.000,0.000,0.000,0.000,1,1,1303,2819,0,0,1,2,0.00,0.00,0.267,-0.289,9.719,-0.305,-0.366,0.000,28.15,7.50,7.76,2.5,19.4,1,1,1,1
5296043,1,0,1,0.000,0.000,0.000,0.000,1,1,1303,2819,0,0,1,2,0.00,0.00,0.262,-0.296,9.689,-0.244,-0.427,0.000,28.15,7.42,7.75,2.5,19.4,1,1,1,1
5306043,1,0,1,0.000,0.000,0.000,0.000,1,1,1303,2819,0,0,1,2,0.00,0.00,0.262,-0.294,9.723,-0.366,-0.305,-0.122,28.12,7.46,7.76,2.8,21.3,1,1,1,1
5316043,1,0,1,0.000,0.000,0.000,0.000,1,1,1303,2819,0,0,1,2,0.00,0.00,0.262,-0.271,9.722,-0.305,-0.305,-0.061,28.14,7.50,7.76,2.5,19.4,1,1,1,1
5326043,1,0,1,0.000,0.000,0.000,0.000,1,1,1303,2819,0,0,1,2,0.00,0.00,0.275,-0.275,9.702,-0.244,-0.366,-0.061,28.19,7.49,7.76,2.5,19.4,1,1,1,1
5336050,1,0,1,0.000,0.000,0.000,0.000,1,1,1303,2819,0,0,1,2,0.00,0.00,0.248,-0.288,9.719,-0.427,-0.427,-0.061,28.19,7.50,7.76,2.5,19.4,1,1,1,1
5346064,1,0,1,0.000,0.000,0.000,0.000,1,1,1303,2819,0,0,1,2,0.00,0.00,0.257,-0.301,9.698,-0.427,-0.427,0.000,28.18,7.50,7.76,2.5,19.4,1,1,1,1
5356073,1,0,1,0.000,0.000,0.000,0.000,1,1,1303,2819,0,0,1,2,0.00,0.00,0.288,-0.294,9.747,-0.305,-0.366,-0.061,28.17,7.49,7.76,2.5,19.4,1,1,1,1
5366073,1,0,1,0.000,0.000,0.000,0.000,1,1,1303,2819,0,0,1,2,0.00,0.00,0.268,-0.282,9.724,-0.305,-0.366,-0.122,28.14,7.50,7.76,2.5,19.4,1,1,1,1
5376080,1,0,1,0.000,0.000,0.000,0.000,1,1,1303,2819,0,0,1,2,0.00,0.00,0.255,-0.286,9.709,-0.366,-0.366,-0.122,28.17,7.49,7.76,2.5,19.4,1,1,1,1
5386088,1,0,1,0.000,0.000,0.000,0.000,1,1,1303,2819,0,0,1,2,0.00,0.00,0.254,-0.285,9.719,-0.366,-0.366,-0.061,28.15,7.50,7.76,2.2,17.5,1,1,1,1
5396088,1,0,1,0.000,0.000,0.000,0.000,1,1,1303,2819,0,0,1,2,0.00,0.00,0.275,-0.296,9.703,-0.305,-0.366,-0.122,28.18,7.49,7.76,2.5,19.4,1,1,1,1
5406088,1,0,1,0.000,0.000,0.000,0.000,1,1,1303,2819,0,0,1,2,0.00,0.00,0.291,-0.293,9.725,-0.305,-0.427,0.000,28.16,7.49,7.76,2.5,19.4,1,1,1,1
5416088,1,0,1,0.000,0.000,0.000,0.000,1,1,1303,2819,0,0,1,2,0.00,0.00,0.286,-0.280,9.726,-0.305,-0.366,-0.061,28.19,7.45,7.76,2.5,19.4,1,1,1,1
5426088,1,0,1,0.000,0.000,0.000,0.000,1,1,1303,2819,0,0,1,2,0.00,0.00,0.269,-0.290,9.708,-0.305,-0.366,-0.122,28.19,7.46,7.76,2.2,17.5,1,1,1,1
5436095,1,0,1,0.000,0.000,0.000,0.000,1,1,1303,2819,0,0,1,2,0.00,0.00,0.246,-0.297,9.707,-0.366,-0.366,0.000,28.19,7.51,7.76,2.2,17.5,1,1,1,1
5446095,1,0,1,0.000,0.000,0.000,0.000,1,1,1303,2819,0,0,1,2,0.00,0.00,0.270,-0.296,9.704,-0.366,-0.427,-0.122,28.15,7.48,7.76,2.2,17.5,1,1,1,1
5456095,1,0,1,0.000,0.000,0.000,0.000,1,1,1303,2819,0,0,1,2,0.00,0.00,0.268,-0.272,9.717,-0.366,-0.427,-0.061,28.16,7.50,7.75,2.2,17.4,1,1,1,1
5466103,1,0,1,0.000,0.000,0.000,0.000,1,1,1303,2819,0,0,1,2,0.00,0.00,0.274,-0.289,9.725,-0.366,-0.427,-0.061,28.12,7.49,7.75,2.2,17.4,1,1,1,1
5476103,1,0,1,0.000,0.000,0.000,0.000,1,1,1303,2819,0,0,1,2,0.00,0.00,0.253,-0.291,9.725,-0.366,-0.366,-0.061,28.14,7.50,7.76,2.5,19.4,1,1,1,1
5486103,1,0,1,0.000,0.000,0.000,0.000,1,1,1303,2819,0,0,1,2,0.00,0.00,0.275,-0.280,9.732,-0.305,-0.366,-0.122,28.18,7.50,7.76,2.5,19.4,1,1,1,1
5496104,1,0,1,0.000,0.000,0.000,0.000,1,1,1303,2819,0,0,1,2,0.00,0.00,0.286,-0.268,9.701,-0.366,-0.366,-0.122,28.17,7.49,7.76,2.2,17.5,1,1,1,1
5506110,1,0,1,0.000,0.000,0.000,0.000,1,1,1303,2819,0,0,1,2,0.00,0.00,0.272,-0.283,9.705,-0.305,-0.427,-0.122,28.14,7.42,7.76,2.5,19.4,1,1,1,1
5516119,1,0,1,0.000,0.000,0.000,0.000,1,1,1303,2819,0,0,1,2,0.00,0.00,0.264,-0.285,9.688,-0.305,-0.366,-0.122,28.17,7.50,7.76,2.5,19.4,1,1,1,1
5526119,1,0,1,0.000,0.000,0.000,0.000,1,1,1303,2819,0,0,1,2,0.00,0.00,0.278,-0.303,9.680,-0.305,-0.366,-0.061,28.21,7.46,7.76,2.5,19.4,1,1,1,1
5536125,1,0,1,0.000,0.000,0.000,0.000,1,1,1303,2819,0,0,1,2,0.00,0.00,0.268,-0.284,9.708,-0.366,-0.366,-0.061,28.20,7.50,7.76,2.2,17.5,1,1,1,1
5546125,1,0,1,0.000,0.000,0.000,0.000,1,1,1303,2819,0,0,1,2,0.00,0.00,0.258,-0.279,9.705,-0.366,-0.366,0.000,28.17,7.46,7.76,2.5,19.4,1,1,1,1
5556134,1,0,1,0.000,0.000,0.000,0.000,1,1,1303,2819,0,0,1,2,0.00,0.00,0.268,-0.299,9.722,-0.305,-0.427,-0.061,28.13,7.50,7.76,2.5,19.4,1,1,1,1
5566140,1,0,1,0.000,0.000,0.000,0.000,1,1,1303,2819,0,0,1,2,0.00,0.00,0.260,-0.296,9.707,-0.305,-0.427,-0.061,28.18,7.50,7.76,2.5,19.4,1,1,1,1
5576141,1,0,1,0.000,0.000,0.000,0.000,1,1,1303,2819,0,0,1,2,0.00,0.00,0.276,-0.281,9.699,-0.366,-0.366,-0.122,28.20,7.47,7.76,2.5,19.4,1,1,1,1
5586156,1,0,1,0.000,0.000,0.000,0.000,1,1,1303,2819,0,0,1,2,0.00,0.00,0.281,-0.272,9.714,-0.427,-0.366,-0.061,28.16,7.48,7.75,2.5,19.4,1,1,1,1
5596164,1,0,1,0.000,0.000,0.000,0.000,1,1,1303,2819,0,0,1,2,0.00,0.00,0.278,-0.267,9.705,-0.366,-0.366,-0.061,28.16,7.50,7.76,2.2,17.5,1,1,1,1
5606171,1,0,1,0.000,0.000,0.000,0.000,1,1,1303,2819,0,0,1,2,0.00,0.00,0.275,-0.277,9.701,-0.244,-0.366,-0.061,28.16,7.50,7.76,2.5,19.4,1,1,1,1
5616171,1,0,1,0.000,0.000,0.000,0.000,1,1,1303,2819,0,0,1,2,0.00,0.00,0.285,-0.296,9.705,-0.366,-0.427,0.000,28.17,7.50,7.76,2.5,19.4,1,1,1,1
5626179,1,0,1,0.000,0.000,0.000,0.000,1,1,1303,2819,0,0,1,2,0.00,0.00,0.280,-0.284,9.727,-0.366,-0.366,-0.122,28.18,7.50,7.76,2.5,19.4,1,1,1,1
5636186,1,0,1,0.000,0.000,0.000,0.000,1,1,1303,2819,0,0,1,2,0.00,0.00,0.267,-0.275,9.713,-0.427,-0.366,0.000,28.18,7.49,7.76,2.5,19.4,1,1,1,1
5646186,1,0,1,0.000,0.000,0.000,0.000,1,1,1303,2819,0,0,1,2,0.00,0.00,0.272,-0.293,9.692,-0.427,-0.305,-0.122,28.15,7.47,7.76,2.2,17.5,1,1,1,1
5656186,1,0,1,0.000,0.000,0.000,0.000,1,1,1303,2819,0,0,1,2,0.00,0.00,0.269,-0.272,9.712,-0.366,-0.427,-0.061,28.20,7.46,7.76,2.5,19.4,1,1,1,1
5666195,1,0,1,0.000,0.000,0.000,0.000,1,1,1303,2819,0,0,1,2,0.00,0.00,0.278,-0.294,9.716,-0.305,-0.427,-0.061,28.20,7.49,7.76,2.5,19.4,1,1,1,1
5676201,1,0,1,0.000,0.000,0.000,0.000,1,1,1303,2819,0,0,1,2,0.00,0.00,0.265,-0.299,9.704,-0.366,-0.366,-0.061,28.20,7.47,7.76,2.5,19.4,1,1,1,1
5686210,1,0,1,0.000,0.000,0.000,0.000,1,1,1303,2819,0,0,1,2,0.00,0.00,0.269,-0.292,9.737,-0.244,-0.427,0.000,28.19,7.49,7.76,2.2,17.5,1,1,1,1
5696210,1,0,1,0.000,0.000,0.000,0.000,1,1,1303,2819,0,0,1,2,0.00,0.00,0.262,-0.266,9.708,-0.366,-0.427,-0.061,28.16,7.47,7.76,2.2,17.5,1,1,1,1
5706210,1,0,1,0.000,0.000,0.000,0.000,1,1,1303,2819,0,0,1,2,0.00,0.00,0.258,-0.286,9.699,-0.427,-0.427,-0.061,28.17,7.48,7.76,2.5,19.4,1,1,1,1
5716210,1,0,1,0.000,0.000,0.000,0.000,1,1,1303,2819,0,0,1,2,0.00,0.00,0.273,-0.286,9.730,-0.305,-0.366,0.000,28.14,7.48,7.76,2.2,17.5,1,1,1,1
5726210,1,0,1,0.000,0.000,0.000,0.000,1,1,1303,2819,0,0,1,2,0.00,0.00,0.260,-0.303,9.714,-0.427,-0.427,-0.061,28.16,7.47,7.76,2.5,19.4,1,1,1,1
5736219,1,0,1,0.000,0.000,0.000,0.000,1,1,1303,2819,0,0,1,2,0.00,0.00,0.251,-0.293,9.688,-0.488,-0.488,-0.061,28.14,7.49,7.76,2.2,17.5,1,1,1,1
5746226,1,0,1,0.000,0.000,0.000,0.000,1,1,1303,2819,0,0,1,2,0.00,0.00,0.272,-0.294,9.724,-0.366,-0.366,-0.061,28.14,7.45,7.76,2.2,17.5,1,1,1,1
5756234,1,0,1,0.000,0.000,0.000,0.000,1,1,1303,2819,0,0,1,2,0.00,0.00,0.277,-0.283,9.720,-0.366,-0.366,-0.061,28.17,7.50,7.76,2.5,19.4,1,1,1,1
5766234,1,0,1,0.000,0.000,0.000,0.000,1,1,1303,2819,0,0,1,2,0.00,0.00,0.286,-0.290,9.700,-0.366,-0.427,-0.122,28.17,7.47,7.76,2.5,19.4,1,1,1,1
5776234,1,0,1,0.000,0.000,0.000,0.000,1,1,1303,2819,0,0,1,2,0.00,0.00,0.260,-0.287,9.713,-0.366,-0.305,-0.183,28.19,7.46,7.76,2.5,19.4,1,1,1,1
5786241,1,0,1,0.000,0.000,0.000,0.000,1,1,1303,2819,0,0,1,2,0.00,0.00,0.260,-0.293,9.708,-0.366,-0.366,0.000,28.19,7.50,7.76,2.2,17.5,1,1,1,1
5796249,1,0,1,0.000,0.000,0.000,0.000,1,1,1303,2819,0,0,1,2,0.00,0.00,0.261,-0.288,9.702,-0.305,-0.427,0.061,28.18,7.50,7.76,2.2,17.5,1,1,1,1
5806249,1,0,1,0.000,0.000,0.000,0.000,1,1,1303,2819,0,0,1,2,0.00,0.00,0.260,-0.290,9.722,-0.305,-0.427,0.000,28.16,7.50,7.76,2.5,19.4,1,1,1,1
5816249,1,0,1,0.000,0.000,0.000,0.000,1,1,1303,2819,0,0,1,2,0.00,0.00,0.267,-0.293,9.720,-0.305,-0.366,0.000,28.19,7.46,7.76,2.5,19.4,1,1,1,1
5826249,1,0,1,0.000,0.000,0.000,0.000,1,1,1303,2819,0,0,1,2,0.00,0.00,0.257,-0.287,9.717,-0.366,-0.427,0.000,28.18,7.47,7.75,2.5,19.4,1,1,1,1
5836256,1,0,1,0.000,0.000,0.000,0.000,1,1,1303,2819,0,0,1,2,0.00,0.00,0.269,-0.306,9.731,-0.305,-0.366,-0.061,28.19,7.49,7.76,2.5,19.4,1,1,1,1
5846256,1,0,1,0.000,0.000,0.000,0.000,1,1,1303,2819,0,0,1,2,0.00,0.00,0.272,-0.290,9.715,-0.244,-0.305,-0.061,28.13,7.49,7.76,2.5,19.4,1,1,1,1
5856264,1,0,1,0.000,0.000,0.000,0.000,1,1,1303,2819,0,0,1,2,0.00,0.00,0.269,-0.277,9.708,-0.366,-0.305,-0.061,28.19,7.46,7.76,2.5,19.4,1,1,1,1
5866271,1,0,1,0.000,0.000,0.000,0.000,1,1,1303,2819,0,0,1,2,0.00,0.00,0.278,-0.296,9.714,-0.427,-0.305,0.000,28.19,7.48,7.76,2.2,17.5,1,1,1,1
5876279,1,0,1,0.000,0.000,0.000,0.000,1,1,1303,2819,0,0,1,2,0.00,0.00,0.281,-0.284,9.704,-0.305,-0.366,0.000,28.17,7.43,7.75,2.5,19.4,1,1,1,1
5886286,1,0,1,0.000,0.000,0.000,0.000,1,1,1303,2819,0,0,1,2,0.00,0.00,0.251,-0.298,9.709,-0.305,-0.366,-0.122,28.20,7.39,7.75,2.5,19.4,1,1,1,1
5896286,1,0,1,0.000,0.000,0.000,0.000,1,1,1303,2819,0,0,1,2,0.00,0.00,0.256,-0.311,9.716,-0.427,-0.305,-0.122,28.14,7.39,7.75,2.2,17.4,1,1,1,1
5906286,1,0,1,0.000,0.000,0.000,0.000,1,1,1303,2819,0,0,1,2,0.00,0.00,0.256,-0.303,9.713,-0.366,-0.366,-0.122,28.13,7.40,7.75,2.2,17.4,1,1,1,1
5916286,1,0,1,0.000,0.000,0.000,0.000,1,1,1303,2819,0,0,1,2,0.00,0.00,0.270,-0.309,9.712,-0.427,-0.427,0.061,28.18,7.37,7.75,2.5,19.4,1,1,1,1
5926295,1,0,1,0.000,0.000,0.000,0.000,1,1,1303,2819,0,0,1,2,0.00,0.00,0.265,-0.302,9.704,-0.366,-0.305,0.000,28.17,7.38,7.75,2.5,19.4,1,1,1,1
5936301,1,0,1,0.000,0.000,0.000,0.000,1,1,1303,2819,0,0,1,2,0.00,0.00,0.262,-0.302,9.717,-0.366,-0.366,-0.061,28.20,7.37,7.75,2.5,19.4,1,1,1,1
5946301,1,0,1,0.000,0.000,0.000,0.000,1,1,1303,2819,0,0,1,2,0.00,0.00,0.284,-0.293,9.719,-0.427,-0.427,-0.061,28.20,7.37,7.75,2.5,19.4,1,1,1,1
5956310,1,0,1,0.000,0.000,0.000,0.000,1,1,1303,2819,0,0,1,2,0.00,0.00,0.292,-0.314,9.725,-0.366,-0.427,0.000,28.16,7.39,7.75,2.5,19.4,1,1,1,1
5966310,1,0,1,0.000,0.000,0.000,0.000,1,1,1303,2819,0,0,1,2,0.00,0.00,0.272,-0.309,9.708,-0.366,-0.366,0.000,28.16,7.37,7.75,2.5,19.4,1,1,1,1
5976310,1,0,1,0.000,0.000,0.000,0.000,1,1,1303,2819,0,0,1,2,0.00,0.00,0.284,-0.309,9.712,-0.366,-0.366,-0.061,28.15,7.35,7.75,2.5,19.4,1,1,1,1
5986316,1,0,1,0.000,0.000,0.000,0.000,1,1,1303,2819,0,0,1,2,0.00,0.00,0.280,-0.314,9.728,-0.366,-0.305,-0.061,28.16,7.37,7.75,2.5,19.4,1,1,1,1
5996325,1,0,1,0.000,0.000,0.000,0.000,1,1,1303,2819,0,0,1,2,0.00,0.00,0.253,-0.312,9.697,-0.427,-0.305,0.000,28.18,7.35,7.75,2.5,19.4,1,1,1,1
6006332,1,0,1,0.000,0.000,0.000,0.000,1,1,1303,2819,0,0,1,2,0.00,0.00,0.262,-0.297,9.704,-0.305,-0.366,0.000,28.18,7.38,7.75,2.5,19.4,1,1,1,1
6016340,1,0,1,0.000,0.000,0.000,0.000,1,1,1303,2819,0,0,1,2,0.00,0.00,0.274,-0.293,9.707,-0.305,-0.427,-0.061,28.18,7.39,7.75,2.5,19.4,1,1,1,1
6026347,1,0,1,0.000,0.000,0.000,0.000,1,1,1303,2819,0,0,1,2,0.00,0.00,0.270,-0.284,9.707,-0.427,-0.427,-0.061,28.16,7.40,7.75,2.5,19.4,1,1,1,1
6036355,1,0,1,0.000,0.000,0.000,0.000,1,1,1303,2819,0,0,1,2,0.00,0.00,0.262,-0.290,9.719,-0.366,-0.366,-0.122,28.18,7.39,7.75,2.5,19.4,1,1,1,1
6046362,1,0,1,0.000,0.000,0.000,0.000,1,1,1303,2819,0,0,1,2,0.00,0.00,0.266,-0.297,9.718,-0.366,-0.305,-0.061,28.12,7.40,7.75,2.5,19.4,1,1,1,1
6056370,1,0,1,0.000,0.000,0.000,0.000,1,1,1303,2819,0,0,1,2,0.00,0.00,0.272,-0.284,9.731,-0.305,-0.427,0.000,28.15,7.41,7.75,2.5,19.4,1,1,1,1
6066370,1,0,1,0.000,0.000,0.000,0.000,1,1,1303,2819,0,0,1,2,0.00,0.00,0.275,-0.303,9.717,-0.305,-0.427,-0.122,28.14,7.40,7.75,2.5,19.4,1,1,1,1
6076377,1,0,1,0.000,0.000,0.000,0.000,1,1,1303,2819,0,0,1,2,0.00,0.00,0.276,-0.298,9.707,-0.366,-0.427,-0.122,28.14,7.40,7.75,2.5,19.4,1,1,1,1
6086377,1,0,1,0.000,0.000,0.000,0.000,1,1,1303,2819,0,0,1,2,0.00,0.00,0.274,-0.294,9.694,-0.305,-0.427,-0.061,28.19,7.38,7.75,2.2,17.4,1,1,1,1
6096377,1,0,1,0.000,0.000,0.000,0.000,1,1,1303,2819,0,0,1,2,0.00,0.00,0.280,-0.299,9.716,-0.366,-0.366,0.000,28.21,7.40,7.75,2.5,19.4,1,1,1,1
6106377,1,0,1,0.000,0.000,0.000,0.000,1,1,1303,2819,0,0,1,2,0.00,0.00,0.261,-0.289,9.713,-0.366,-0.366,-0.061,28.22,7.37,7.75,2.5,19.4,1,1,1,1
6116377,1,0,1,0.000,0.000,0.000,0.000,1,1,1303,2819,0,0,1,2,0.00,0.00,0.260,-0.307,9.697,-0.305,-0.366,-0.061,28.15,7.38,7.75,2.5,19.4,1,1,1,1
6126386,1,0,1,0.000,0.000,0.000,0.000,1,1,1303,2819,0,0,1,2,0.00,0.00,0.296,-0.289,9.723,-0.366,-0.366,-0.122,28.18,7.38,7.75,2.5,19.4,1,1,1,1
6136392,1,0,1,0.000,0.000,0.000,0.000,1,1,1303,2819,0,0,1,2,0.00,0.00,0.254,-0.276,9.725,-0.366,-0.366,-0.061,28.18,7.40,7.75,2.2,17.4,1,1,1,1
6146392,1,0,1,0.000,0.000,0.000,0.000,1,1,1303,2819,0,0,1,2,0.00,0.00,0.251,-0.282,9.711,-0.366,-0.427,-0.061,28.17,7.40,7.75,2.5,19.4,1,1,1,1
6156401,1,0,1,0.000,0.000,0.000,0.000,1,1,1303,2819,0,0,1,2,0.00,0.00,0.258,-0.281,9.737,-0.305,-0.488,-0.061,28.16,7.40,7.75,2.5,19.4,1,1,1,1
6166408,1,0,1,0.000,0.000,0.000,0.000,1,1,1303,2819,0,0,1,2,0.00,0.00,0.265,-0.290,9.722,-0.366,-0.366,-0.061,28.20,7.46,7.75,2.5,19.4,1,1,1,1
6176416,1,0,1,0.000,0.000,0.000,0.000,1,1,1303,2819,0,0,1,2,0.00,0.00,0.265,-0.290,9.714,-0.366,-0.305,-0.122,28.17,7.44,7.76,2.5,19.4,1,1,1,1
6186416,1,0,1,0.000,0.000,0.000,0.000,1,1,1303,2819,0,0,1,2,0.00,0.00,0.254,-0.293,9.703,-0.244,-0.427,-0.061,28.18,7.50,7.76,2.5,19.4,1,1,1,1
6196416,1,0,1,0.000,0.000,0.000,0.000,1,1,1303,2819,0,0,1,2,0.00,0.00,0.278,-0.299,9.689,-0.244,-0.427,0.000,28.15,7.48,7.76,2.5,19.4,1,1,1,1
6206416,1,0,1,0.000,0.000,0.000,0.000,1,1,1303,2819,0,0,1,2,0.00,0.00,0.262,-0.303,9.688,-0.427,-0.305,-0.061,28.20,7.49,7.76,2.5,19.4,1,1,1,1
6216423,1,0,1,0.000,0.000,0.000,0.000,1,1,1303,2819,0,0,1,2,0.00,0.00,0.280,-0.291,9.721,-0.366,-0.427,-0.061,28.17,7.46,7.76,2.5,19.4,1,1,1,1
6226423,1,0,1,0.000,0.000,0.000,0.000,1,1,1303,2819,0,0,1,2,0.00,0.00,0.263,-0.277,9.716,-0.244,-0.488,-0.061,28.18,7.49,7.76,2.5,19.4,1,1,1,1
6236431,1,0,1,0.000,0.000,0.000,0.000,1,1,1303,2819,0,0,1,2,0.00,0.00,0.255,-0.286,9.746,-0.305,-0.366,-0.061,28.16,7.47,7.76,2.5,19.4,1,1,1,1
6246431,1,0,1,0.000,0.000,0.000,0.000,1,1,1303,2819,0,0,1,2,0.00,0.00,0.280,-0.271,9.707,-0.366,-0.366,0.000,28.20,7.49,7.76,2.2,17.5,1,1,1,1
6256431,1,0,1,0.000,0.000,0.000,0.000,1,1,1303,2819,0,0,1,2,0.00,0.00,0.280,-0.294,9.683,-0.366,-0.305,0.000,28.22,7.50,7.76,2.5,19.4,1,1,1,1
6266431,1,0,1,0.000,0.000,0.000,0.000,1,1,1303,2819,0,0,1,2,0.00,0.00,0.268,-0.307,9.707,-0.305,-0.305,-0.061,28.19,7.48,7.76,2.5,19.4,1,1,1,1
6276431,1,0,1,0.000,0.000,0.000,0.000,1,1,1303,2819,0,0,1,2,0.00,0.00,0.257,-0.296,9.721,-0.305,-0.427,-0.122,28.18,7.49,7.76,2.5,19.4,1,1,1,1
6286431,1,0,1,0.000,0.000,0.000,0.000,1,1,1303,2819,0,0,1,2,0.00,0.00,0.267,-0.280,9.734,-0.366,-0.366,-0.061,28.19,7.50,7.76,2.2,17.5,1,1,1,1
6296438,1,1,1,0.008,-0.050,0.100,0.000,2,1,1303,2819,0,0,1,2,0.00,0.00,0.275,-0.297,9.704,-0.305,-0.366,-0.061,28.20,7.31,7.74,2.5,19.4,1,1,1,1
6306438,1,1,1,0.008,-0.050,0.100,0.000,2,1,1303,2819,0,0,1,2,0.00,0.00,0.257,-0.283,9.699,-0.305,-0.427,-0.122,28.17,7.46,7.70,62.8,483.3,1,1,1,1
6316446,1,1,1,0.008,-0.050,0.100,0.000,2,1,1303,2819,0,0,1,2,0.00,0.00,0.257,-0.294,9.714,-0.427,-0.427,0.000,28.17,7.46,7.70,62.5,481.0,1,1,1,1
6326453,1,1,1,0.008,-0.050,0.100,0.000,2,1,1303,2819,0,0,1,2,0.00,0.00,0.282,-0.292,9.683,-0.305,-0.366,-0.061,28.17,7.46,7.70,62.5,481.5,1,1,1,1
6336453,1,1,1,0.008,-0.050,0.100,0.000,2,1,1303,2819,0,0,1,2,0.00,0.00,0.281,-0.280,9.695,-0.366,-0.305,-0.061,28.19,7.45,7.71,63.0,485.6,1,1,1,1
6346453,1,1,1,0.008,-0.050,0.100,0.000,2,1,1303,2819,0,0,1,2,0.00,0.00,0.264,-0.283,9.710,-0.427,-0.366,-0.061,28.20,7.46,7.71,62.5,481.6,1,1,1,1
6356453,1,1,1,0.008,-0.050,0.100,0.000,2,1,1303,2819,0,0,1,2,0.00,0.00,0.269,-0.292,9.707,-0.366,-0.305,0.000,28.17,7.42,7.70,62.8,482.9,1,1,1,1
6366461,1,1,1,0.008,-0.050,0.100,0.000,2,1,1303,2819,0,0,1,2,0.00,0.00,0.273,-0.284,9.711,-0.305,-0.366,0.000,28.17,7.46,7.70,63.0,485.2,1,1,1,1
6376461,1,1,1,0.008,-0.050,0.100,0.000,2,1,1303,2819,0,0,1,2,0.00,0.00,0.269,-0.277,9.697,-0.305,-0.427,-0.061,28.15,7.44,7.70,62.5,481.3,1,1,1,1
6386461,1,1,1,0.008,-0.050,0.100,0.000,2,1,1303,2819,0,0,1,2,0.00,0.00,0.264,-0.264,9.714,-0.366,-0.427,-0.061,28.13,7.46,7.70,62.8,483.0,1,1,1,1
6396468,1,1,1,0.008,-0.050,0.100,0.000,2,1,1303,2819,0,0,1,2,0.00,0.00,0.254,-0.289,9.730,-0.366,-0.366,-0.122,28.19,7.46,7.70,63.0,485.3,1,1,1,1
6406468,1,1,1,0.008,-0.050,0.100,0.000,2,1,1303,2819,0,0,1,2,0.00,0.00,0.253,-0.293,9.707,-0.366,-0.305,-0.061,28.15,7.46,7.69,61.8,475.2,1,1,1,1
6416468,1,1,1,0.008,-0.050,0.100,0.000,2,1,1303,2819,0,0,1,2,0.00,0.00,0.263,-0.284,9.713,-0.366,-0.366,-0.122,28.15,7.46,7.70,62.5,481.2,1,1,1,1
6426468,1,1,1,0.008,-0.050,0.100,0.000,2,1,1303,2819,0,0,1,2,0.00,0.00,0.282,-0.277,9.724,-0.366,-0.366,-0.061,28.17,7.42,7.69,62.5,480.6,1,1,1,1
6436477,1,1,1,0.008,-0.050,0.100,0.000,2,1,1303,2819,0,0,1,2,0.00,0.00,0.289,-0.297,9.708,-0.427,-0.366,0.000,28.19,7.44,7.70,62.5,481.2,1,1,1,1
6446477,1,1,1,0.008,-0.050,0.100,0.000,2,1,1303,2819,0,0,1,2,0.00,0.00,0.264,-0.300,9.701,-0.366,-0.427,0.000,28.19,7.46,7.70,62.8,483.5,1,1,1,1
6456483,1,1,1,0.008,-0.050,0.100,0.000,2,1,1303,2819,0,0,1,2,0.00,0.00,0.264,-0.287,9.720,-0.305,-0.366,-0.061,28.14,7.46,7.70,62.0,477.7,1,1,1,1
6466483,1,1,1,0.008,-0.050,0.100,0.000,2,1,1303,2819,0,0,1,2,0.00,0.00,0.269,-0.272,9.725,-0.305,-0.366,-0.061,28.16,7.45,7.70,63.0,485.3,1,1,1,1
6476483,1,1,1,0.008,-0.050,0.100,0.000,2,1,1303,2819,0,0,1,2,0.00,0.00,0.281,-0.291,9.707,-0.366,-0.366,-0.061,28.18,7.46,7.70,62.2,479.5,1,1,1,1
6486483,1,1,1,0.008,-0.050,0.100,0.000,2,1,1303,2819,0,0,1,2,0.00,0.00,0.258,-0.273,9.726,-0.366,-0.427,-0.122,28.18,7.41,7.69,62.8,482.9,1,1,1,1
6496492,1,1,1,0.008,-0.050,0.100,0.000,2,1,1303,2819,0,0,1,2,0.00,0.00,0.272,-0.305,9.713,-0.305,-0.427,0.000,28.21,7.46,7.71,62.5,481.6,1,1,1,1
6506499,1,1,1,0.008,-0.050,0.100,0.000,2,1,1303,2819,0,0,1,2,0.00,0.00,0.288,-0.283,9.700,-0.305,-0.366,0.000,28.16,7.45,7.70,63.0,485.1,1,1,1,1
6516499,1,1,1,0.008,-0.050,0.100,0.000,2,1,1303,2819,0,0,1,2,0.00,0.00,0.256,-0.263,9.699,-0.244,-0.305,0.000,28.18,7.45,7.70,61.5,473.9,1,1,1,1
6526499,1,1,1,0.008,-0.050,0.100,0.000,2,1,1303,2819,0,0,1,2,0.00,0.00,0.264,-0.280,9.719,-0.305,-0.488,-0.061,28.15,7.47,7.70,63.0,485.3,1,1,1,1
6536499,1,1,1,0.008,-0.050,0.100,0.000,2,1,1303,2819,0,0,1,2,0.00,0.00,0.268,-0.279,9.716,-0.366,-0.366,0.000,28.16,7.46,7.70,62.2,479.4,1,1,1,1
6546507,1,1,1,0.008,-0.050,0.100,0.000,2,1,1303,2819,0,0,1,2,0.00,0.00,0.260,-0.297,9.688,-0.366,-0.305,0.000,28.19,7.45,7.70,62.8,483.5,1,1,1,1
6556507,1,1,1,0.008,-0.050,0.100,0.000,2,1,1303,2819,0,0,1,2,0.00,0.00,0.269,-0.300,9.711,-0.366,-0.305,0.000,28.14,7.46,7.70,62.8,483.0,1,1,1,1
6566514,1,1,1,0.008,-0.050,0.100,0.000,2,1,1303,2819,0,0,1,2,0.00,0.00,0.278,-0.294,9.748,-0.366,-0.366,-0.061,28.16,7.50,7.69,62.0,477.1,1,1,1,1
6576522,1,1,1,0.008,-0.050,0.100,0.000,2,1,1303,2819,0,0,1,2,0.00,0.00,0.272,-0.290,9.720,-0.366,-0.427,-0.061,28.13,7.44,7.70,62.2,479.3,1,1,1,1
6586532,1,1,1,0.008,-0.050,0.100,0.000,2,1,1303,2819,0,0,1,2,0.00,0.00,0.259,-0.299,9.729,-0.366,-0.366,-0.061,28.15,7.42,7.69,62.2,478.9,1,1,1,1
6596544,1,1,1,0.008,-0.050,0.100,0.000,2,1,1303,2819,0,0,1,2,0.00,0.00,0.263,-0.306,9.703,-0.305,-0.305,-0.122,28.14,7.46,7.71,62.8,483.6,1,1,1,1
6606544,1,1,1,0.008,-0.050,0.100,0.000,2,1,1303,2819,0,0,1,2,0.00,0.00,0.268,-0.287,9.708,-0.305,-0.305,0.000,28.15,7.46,7.71,62.0,477.9,1,1,1,1
6616552,1,1,1,0.008,-0.050,0.100,0.000,2,1,1303,2819,0,0,1,2,0.00,0.00,0.259,-0.295,9.711,-0.366,-0.305,-0.061,28.17,7.46,7.70,63.2,487.3,1,1,1,1
6626553,1,1,1,0.008,-0.050,0.100,0.000,2,1,1303,2819,0,0,1,2,0.00,0.00,0.278,-0.289,9.693,-0.305,-0.305,-0.122,28.16,7.46,7.69,61.8,475.1,1,1,1,1
6636553,1,1,1,0.008,-0.050,0.100,0.000,2,1,1303,2819,0,0,1,2,0.00,0.00,0.266,-0.281,9.704,-0.305,-0.366,-0.061,28.19,7.45,7.70,62.2,479.1,1,1,1,1
6646559,1,1,1,0.008,-0.050,0.100,0.000,2,1,1303,2819,0,0,1,2,0.00,0.00,0.257,-0.293,9.731,-0.305,-0.427,-0.061,28.14,7.46,7.70,63.0,485.1,1,1,1,1
6656559,1,1,1,0.008,-0.050,0.100,0.000,2,1,1303,2819,0,0,1,2,0.00,0.00,0.265,-0.277,9.725,-0.366,-0.366,0.000,28.15,7.47,7.70,63.0,485.2,1,1,1,1
6666568,1,1,1,0.008,-0.050,0.100,0.000,2,1,1303,2819,0,0,1,2,0.00,0.00,0.265,-0.292,9.706,-0.366,-0.305,0.000,28.15,7.50,7.71,62.0,478.0,1,1,1,1
6676568,1,1,1,0.008,-0.050,0.100,0.000,2,1,1303,2819,0,0,1,2,0.00,0.00,0.258,-0.307,9.692,-0.366,-0.366,-0.122,28.21,7.46,7.70,62.8,483.5,1,1,1,1
6686574,1,1,1,0.008,-0.050,0.100,0.000,2,1,1303,2819,0,0,1,2,0.00,0.00,0.274,-0.288,9.697,-0.366,-0.488,-0.061,28.18,7.42,7.70,62.0,477.6,1,1,1,1
6696583,1,1,1,0.008,-0.050,0.100,0.000,2,1,1303,2819,0,0,1,2,0.00,0.00,0.253,-0.284,9.708,-0.366,-0.366,-0.061,28.20,7.46,7.70,62.8,483.0,1,1,1,1
6706590,1,1,1,0.008,-0.050,0.100,0.000,2,1,1303,2819,0,0,1,2,0.00,0.00,0.280,-0.282,9.717,-0.305,-0.305,-0.061,28.16,7.47,7.70,62.2,479.2,1,1,1,1
6716598,1,1,1,0.008,-0.050,0.100,0.000,2,1,1303,2819,0,0,1,2,0.00,0.00,0.270,-0.289,9.726,-0.427,-0.366,-0.122,28.19,7.46,7.70,62.0,477.6,1,1,1,1
6726605,1,1,1,0.008,-0.050,0.100,0.000,2,1,1303,2819,0,0,1,2,0.00,0.00,0.276,-0.299,9.720,-0.366,-0.305,-0.061,28.16,7.46,7.71,62.5,481.6,1,1,1,1
6736605,1,1,1,0.008,-0.050,0.100,0.000,2,1,1303,2819,0,0,1,2,0.00,0.00,0.277,-0.296,9.708,-0.244,-0.366,0.000,28.17,7.46,7.71,62.2,479.7,1,1,1,1
6746613,1,1,1,0.008,-0.050,0.100,0.000,2,1,1303,2819,0,0,1,2,0.00,0.00,0.260,-0.290,9.716,-0.305,-0.305,-0.061,28.20,7.45,7.71,62.2,479.9,1,1,1,1
6756613,1,1,1,0.008,-0.050,0.100,0.000,2,1,1303,2819,0,0,1,2,0.00,0.00,0.265,-0.299,9.708,-0.366,-0.427,-0.061,28.18,7.44,7.70,62.0,477.5,1,1,1,1
6766620,1,1,1,0.008,-0.050,0.100,0.000,2,1,1303,2819,0,0,1,2,0.00,0.00,0.274,-0.297,9.716,-0.427,-0.427,-0.061,28.15,7.46,7.70,63.2,487.1,1,1,1,1
6776628,1,1,1,0.008,-0.050,0.100,0.000,2,1,1303,2819,0,0,1,2,0.00,0.00,0.271,-0.313,9.713,-0.427,-0.305,-0.122,28.16,7.46,7.70,61.5,473.6,1,1,1,1
6786635,1,1,1,0.008,-0.050,0.100,0.000,2,1,1303,2819,0,0,1,2,0.00,0.00,0.269,-0.305,9.693,-0.366,-0.305,0.000,28.17,7.46,7.70,62.0,477.3,1,1,1,1
6796644,1,1,1,0.008,-0.050,0.100,0.000,2,1,1303,2819,0,0,1,2,0.00,0.00,0.270,-0.305,9.710,-0.427,-0.366,0.000,28.15,7.46,7.70,62.8,483.3,1,1,1,1
6806650,1,1,1,0.008,-0.050,0.100,0.000,2,1,1303,2819,0,0,1,2,0.00,0.00,0.256,-0.275,9.727,-0.427,-0.366,-0.061,28.13,7.46,7.69,63.0,484.8,1,1,1,1
6816650,1,1,1,0.008,-0.050,0.100,0.000,2,1,1303,2819,0,0,1,2,0.00,0.00,0.266,-0.285,9.718,-0.427,-0.305,-0.061,28.17,7.44,7.69,62.0,477.1,1,1,1,1
6826659,1,1,1,0.008,-0.050,0.100,0.000,2,1,1303,2819,0,0,1,2,0.00,0.00,0.272,-0.281,9.720,-0.305,-0.366,-0.122,28.20,7.42,7.70,62.0,477.4,1,1,1,1
6836666,1,1,1,0.008,-0.050,0.100,0.000,2,1,1303,2819,0,0,1,2,0.00,0.00,0.262,-0.286,9.726,-0.366,-0.366,-0.061,28.15,7.46,7.70,62.8,483.3,1,1,1,1
6846674,1,1,1,0.008,-0.050,0.100,0.000,2,1,1303,2819,0,0,1,2,0.00,0.00,0.252,-0.299,9.719,-0.427,-0.427,-0.061,28.15,7.46,7.70,62.0,477.6,1,1,1,1
6856681,1,1,1,0.008,-0.050,0.100,0.000,2,1,1303,2819,0,0,1,2,0.00,0.00,0.261,-0.293,9.716,-0.366,-0.366,-0.061,28.18,7.46,7.71,62.8,483.8,1,1,1,1
6866681,1,1,1,0.008,-0.050,0.100,0.000,2,1,1303,2819,0,0,1,2,0.00,0.00,0.274,-0.311,9.716,-0.305,-0.366,-0.122,28.19,7.46,7.69,61.8,475.1,1,1,1,1
6876681,1,1,1,0.008,-0.050,0.100,0.000,2,1,1303,2819,0,0,1,2,0.00,0.00,0.266,-0.296,9.711,-0.427,-0.427,-0.061,28.12,7.47,7.70,63.2,486.9,1,1,1,1
6886681,1,1,1,0.008,-0.050,0.100,0.000,2,1,1303,2819,0,0,1,2,0.00,0.00,0.268,-0.286,9.707,-0.427,-0.305,-0.061,28.12,7.41,7.70,61.3,471.7,1,1,1,1
6896681,1,1,1,0.008,-0.050,0.100,0.000,2,1,1303,2819,0,0,1,2,0.00,0.00,0.266,-0.296,9.725,-0.244,-0.305,-0.122,28.15,7.45,7.70,63.0,485.4,1,1,1,1
6906689,1,1,1,0.008,-0.050,0.100,0.000,2,1,1303,2819,0,0,1,2,0.00,0.00,0.262,-0.297,9.700,-0.366,-0.366,-0.122,28.15,7.46,7.69,62.5,480.9,1,1,1,1
6916689,1,1,1,0.008,-0.050,0.100,0.000,2,1,1303,2819,0,0,1,2,0.00,0.00,0.241,-0.293,9.668,-0.305,-0.427,-0.061,28.19,7.46,7.71,61.8,475.9,1,1,1,1
6926696,1,1,1,0.008,-0.050,0.100,0.000,2,1,1303,2819,0,0,1,2,0.00,0.00,0.238,-0.301,9.713,-0.366,-0.366,-0.122,28.18,7.46,7.70,62.5,481.1,1,1,1,1
6936704,1,1,1,0.008,-0.050,0.100,0.000,2,1,1303,2819,0,0,1,2,0.00,0.00,0.260,-0.296,9.737,-0.366,-0.305,-0.061,28.14,7.46,7.70,63.2,487.3,1,1,1,1
6946709,1,1,1,0.008,-0.050,0.100,0.000,2,1,1303,2819,0,0,1,2,0.00,0.00,0.262,-0.291,9.725,-0.244,-0.366,-0.061,28.21,7.46,7.69,61.8,475.1,1,1,1,1
6956724,1,1,1,0.008,-0.050,0.100,0.000,2,1,1303,2819,0,0,1,2,0.00,0.00,0.260,-0.295,9.705,-0.427,-0.366,-0.061,28.17,7.83,7.70,62.5,481.4,1,1,1,1
6966724,1,1,1,0.008,-0.050,0.100,0.000,2,1,1303,2819,0,0,1,2,0.00,0.00,0.278,-0.291,9.691,-0.366,-0.427,-0.061,28.12,7.46,7.70,62.8,483.0,1,1,1,1
6976724,1,1,1,0.008,-0.050,0.100,0.000,2,1,1303,2819,0,0,1,2,0.00,0.00,0.249,-0.297,9.700,-0.305,-0.427,-0.061,28.16,7.44,7.70,62.0,477.6,1,1,1,1
6986724,1,1,1,0.008,-0.050,0.100,0.000,2,1,1303,2819,0,0,1,2,0.00,0.00,0.253,-0.299,9.688,-0.366,-0.305,-0.122,28.17,7.83,7.71,62.8,483.6,1,1,1,1
6996731,1,1,1,0.008,-0.050,0.100,0.000,2,1,1303,2819,0,0,1,2,0.00,0.00,0.256,-0.282,9.667,-0.305,-0.305,-0.061,28.23,7.46,7.70,62.8,483.3,1,1,1,1
7006739,1,1,1,0.008,-0.050,0.100,0.000,2,1,1303,2819,0,0,1,2,0.00,0.00,0.253,-0.287,9.698,-0.305,-0.366,-0.061,28.18,7.46,7.70,62.2,479.6,1,1,1,1
7016739,1,1,1,0.008,-0.050,0.100,0.000,2,1,1303,2819,0,0,1,2,0.00,0.00,0.275,-0.308,9.712,-0.305,-0.366,-0.122,28.17,7.46,7.71,62.0,477.8,1,1,1,1
7026746,1,1,1,0.008,-0.050,0.100,0.000,2,1,1303,2819,0,0,1,2,0.00,0.00,0.267,-0.305,9.721,-0.366,-0.427,-0.061,28.17,7.46,7.70,63.2,487.3,1,1,1,1
7036754,1,1,1,0.008,-0.050,0.100,0.000,2,1,1303,2819,0,0,1,2,0.00,0.00,0.277,-0.294,9.698,-0.366,-0.366,-0.061,28.17,7.46,7.70,61.5,473.9,1,1,1,1
7046755,1,1,1,0.008,-0.050,0.100,0.000,2,1,1303,2819,0,0,1,2,0.00,0.00,0.257,-0.290,9.709,-0.305,-0.366,0.000,28.15,7.42,7.70,63.0,485.3,1,1,1,1
7056770,1,1,1,0.008,-0.050,0.100,0.000,2,1,1303,2819,0,0,1,2,0.00,0.00,0.262,-0.278,9.729,-0.305,-0.305,-0.061,28.17,7.49,7.70,62.2,479.4,1,1,1,1
7066770,1,1,1,0.008,-0.050,0.100,0.000,2,1,1303,2819,0,0,1,2,0.00,0.00,0.268,-0.287,9.713,-0.366,-0.305,-0.061,28.20,7.46,7.70,62.8,483.3,1,1,1,1
7076776,1,1,1,0.008,-0.050,0.100,0.000,2,1,1303,2819,0,0,1,2,0.00,0.00,0.255,-0.283,9.697,-0.366,-0.305,0.000,28.17,7.46,7.70,62.0,477.5,1,1,1,1
7086785,1,1,1,0.008,-0.050,0.100,0.000,2,1,1303,2819,0,0,1,2,0.00,0.00,0.278,-0.272,9.731,-0.305,-0.366,-0.061,28.15,7.47,7.70,63.2,487.0,1,1,1,1
7096785,1,1,1,0.008,-0.050,0.100,0.000,2,1,1303,2819,0,0,1,2,0.00,0.00,0.262,-0.291,9.719,-0.305,-0.366,-0.061,28.17,7.46,7.70,61.8,475.4,1,1,1,1
7106785,1,1,1,0.008,-0.050,0.100,0.000,2,1,1303,2819,0,0,1,2,0.00,0.00,0.259,-0.310,9.713,-0.305,-0.305,-0.122,28.14,7.46,7.71,63.0,485.6,1,1,1,1
7116785,1,1,1,0.008,-0.050,0.100,0.000,2,1,1303,2819,0,0,1,2,0.00,0.00,0.263,-0.287,9.696,-0.305,-0.427,-0.122,28.23,7.46,7.70,62.2,479.1,1,1,1,1
7126791,1,1,1,0.008,-0.050,0.100,0.000,2,1,1303,2819,0,0,1,2,0.00,0.00,0.264,-0.281,9.691,-0.244,-0.427,-0.122,28.17,7.47,7.70,62.0,477.7,1,1,1,1
7136792,1,1,1,0.008,-0.050,0.100,0.000,2,1,1303,2819,0,0,1,2,0.00,0.00,0.263,-0.276,9.703,-0.305,-0.366,0.000,28.17,7.45,7.70,62.8,483.0,1,1,1,1
7146792,1,1,1,0.008,-0.050,0.100,0.000,2,1,1303,2819,0,0,1,2,0.00,0.00,0.262,-0.286,9.714,-0.427,-0.305,0.000,28.17,7.46,7.70,62.8,483.0,1,1,1,1
7156792,1,1,1,0.008,-0.050,0.100,0.000,2,1,1303,2819,0,0,1,2,0.00,0.00,0.262,-0.274,9.722,-0.305,-0.427,-0.122,28.19,7.46,7.70,62.2,479.6,1,1,1,1
7166800,1,1,1,0.008,-0.050,0.100,0.000,2,1,1303,2819,0,0,1,2,0.00,0.00,0.257,-0.295,9.721,-0.244,-0.366,-0.122,28.20,7.46,7.71,62.2,479.8,1,1,1,1
7176800,1,1,1,0.008,-0.050,0.100,0.000,2,1,1303,2819,0,0,1,2,0.00,0.00,0.286,-0.282,9.713,-0.244,-0.366,0.000,28.18,7.46,7.70,62.8,483.5,1,1,1,1
7186800,1,1,1,0.008,-0.050,0.100,0.000,2,1,1303,2819,0,0,1,2,0.00,0.00,0.289,-0.284,9.712,-0.366,-0.427,0.000,28.17,7.44,7.71,61.5,473.9,1,1,1,1
7196807,1,1,1,0.008,-0.050,0.100,0.000,2,1,1303,2819,0,0,1,2,0.00,0.00,0.258,-0.294,9.704,-0.366,-0.427,-0.122,28.17,7.39,7.70,63.2,487.3,1,1,1,1
7206822,1,1,1,0.008,-0.050,0.100,0.000,2,1,1303,2819,0,0,1,2,0.00,0.00,0.271,-0.281,9.716,-0.305,-0.366,-0.061,28.16,7.45,7.71,62.0,477.8,1,1,1,1
7216830,1,1,1,0.008,-0.050,0.100,0.000,2,1,1303,2819,0,0,1,2,0.00,0.00,0.268,-0.281,9.705,-0.366,-0.366,-0.061,28.15,7.44,7.70,62.2,479.4,1,1,1,1
7226830,1,1,1,0.008,-0.050,0.100,0.000,2,1,1303,2819,0,0,1,2,0.00,0.00,0.261,-0.302,9.706,-0.305,-0.366,-0.122,28.16,7.45,7.69,61.5,473.2,1,1,1,1
7236837,1,1,1,0.008,-0.050,0.100,0.000,2,1,1303,2819,0,0,1,2,0.00,0.00,0.289,-0.307,9.741,-0.305,-0.427,-0.061,28.14,7.45,7.70,63.0,485.4,1,1,1,1
7246838,1,1,1,0.008,-0.050,0.100,0.000,2,1,1303,2819,0,0,1,2,0.00,0.00,0.251,-0.284,9.726,-0.305,-0.427,-0.122,28.21,7.46,7.70,62.8,482.9,1,1,1,1
7256846,1,1,1,0.008,-0.050,0.100,0.000,2,1,1303,2819,0,0,1,2,0.00,0.00,0.267,-0.289,9.703,-0.305,-0.427,-0.061,28.22,7.46,7.70,62.5,481.4,1,1,1,1
7266852,1,1,1,0.008,-0.050,0.100,0.000,2,1,1303,2819,0,0,1,2,0.00,0.00,0.281,-0.286,9.691,-0.366,-0.305,-0.122,28.18,7.42,7.70,62.0,477.7,1,1,1,1
7276852,1,1,1,0.008,-0.050,0.100,0.000,2,1,1303,2819,0,0,1,2,0.00,0.00,0.250,-0.284,9.716,-0.305,-0.427,-0.122,28.17,7.44,7.70,62.5,481.5,1,1,1,1
7286861,1,1,1,0.008,-0.050,0.100,0.000,2,1,1303,2819,0,0,1,2,0.00,0.00,0.259,-0.283,9.693,-0.244,-0.366,-0.061,28.17,7.46,7.70,62.8,483.3,1,1,1,1
7296876,1,1,1,0.008,-0.050,0.100,0.000,2,1,1303,2819,0,0,1,2,0.00,0.00,0.275,-0.304,9.717,-0.366,-0.427,-0.122,28.17,7.42,7.69,61.3,471.3,1,1,1,1
7306882,1,1,1,0.008,-0.050,0.100,0.000,2,1,1303,2819,0,0,1,2,0.00,0.00,0.265,-0.286,9.718,-0.305,-0.427,-0.061,28.15,7.46,7.70,63.2,487.3,1,1,1,1
7316882,1,1,1,0.008,-0.050,0.100,0.000,2,1,1303,2819,0,0,1,2,0.00,0.00,0.270,-0.277,9.711,-0.366,-0.366,0.000,28.16,7.46,7.70,62.2,479.6,1,1,1,1
7326891,1,1,1,0.008,-0.050,0.100,0.000,2,1,1303,2819,0,0,1,2,0.00,0.00,0.282,-0.296,9.692,-0.427,-0.427,0.000,28.14,7.45,7.71,62.0,477.9,1,1,1,1
7336898,1,1,1,0.008,-0.050,0.100,0.000,2,1,1303,2819,0,0,1,2,0.00,0.00,0.274,-0.286,9.714,-0.366,-0.427,-0.122,28.20,7.45,7.70,62.5,481.3,1,1,1,1
7346898,1,1,1,0.008,-0.050,0.100,0.000,2,1,1303,2819,0,0,1,2,0.00,0.00,0.265,-0.265,9.704,-0.488,-0.366,-0.122,28.21,7.47,7.69,62.0,477.1,1,1,1,1
7356906,1,1,1,0.008,-0.050,0.100,0.000,2,1,1303,2819,0,0,1,2,0.00,0.00,0.262,-0.298,9.700,-0.488,-0.366,-0.122,28.15,7.44,7.70,61.5,473.5,1,1,1,1
7366906,1,1,1,0.008,-0.050,0.100,0.000,2,1,1303,2819,0,0,1,2,0.00,0.00,0.251,-0.297,9.700,-0.366,-0.305,0.000,28.16,7.46,7.70,62.8,483.4,1,1,1,1
7376913,1,1,1,0.008,-0.050,0.100,0.000,2,1,1303,2819,0,0,1,2,0.00,0.00,0.269,-0.305,9.713,-0.305,-0.305,-0.061,28.16,7.43,7.70,62.2,479.3,1,1,1,1
7386913,1,1,1,0.008,-0.050,0.100,0.000,2,1,1303,2819,0,0,1,2,0.00,0.00,0.258,-0.305,9.690,-0.366,-0.366,-0.061,28.16,7.46,7.70,62.5,481.5,1,1,1,1
7396913,1,1,1,0.008,-0.050,0.100,0.000,2,1,1303,2819,0,0,1,2,0.00,0.00,0.253,-0.274,9.708,-0.366,-0.427,-0.122,28.23,7.46,7.70,62.0,477.6,1,1,1,1
7406913,1,1,1,0.008,-0.050,0.100,0.000,2,1,1303,2819,0,0,1,2,0.00,0.00,0.259,-0.305,9.701,-0.366,-0.305,-0.122,28.17,7.46,7.70,62.5,481.4,1,1,1,1
7416913,1,1,1,0.008,-0.050,0.100,0.000,2,1,1303,2819,0,0,1,2,0.00,0.00,0.278,-0.302,9.721,-0.366,-0.366,-0.122,28.19,7.46,7.70,62.2,479.1,1,1,1,1
7426921,1,1,1,0.008,-0.050,0.100,0.000,2,1,1303,2819,0,0,1,2,0.00,0.00,0.276,-0.296,9.716,-0.305,-0.366,0.000,28.17,7.45,7.70,62.2,479.5,1,1,1,1
7436921,1,1,1,0.008,-0.050,0.100,0.000,2,1,1303,2819,0,0,1,2,0.00,0.00,0.264,-0.295,9.685,-0.366,-0.366,0.061,28.21,7.43,7.71,62.5,481.6,1,1,1,1
7446928,1,1,1,0.008,-0.050,0.100,0.000,2,1,1303,2819,0,0,1,2,0.00,0.00,0.280,-0.311,9.735,-0.427,-0.366,-0.061,28.17,7.46,7.71,61.8,475.9,1,1,1,1
7456937,1,1,1,0.008,-0.050,0.100,0.000,2,1,1303,2819,0,0,1,2,0.00,0.00,0.251,-0.280,9.717,-0.366,-0.305,-0.122,28.15,7.46,7.70,62.5,481.5,1,1,1,1
7466943,1,1,1,0.008,-0.050,0.100,0.000,2,1,1303,2819,0,0,1,2,0.00,0.00,0.257,-0.309,9.713,-0.366,-0.305,-0.061,28.15,7.43,7.70,62.0,477.6,1,1,1,1
7476943,1,1,1,0.008,-0.050,0.100,0.000,2,1,1303,2819,0,0,1,2,0.00,0.00,0.260,-0.330,9.718,-0.427,-0.366,0.000,28.19,7.46,7.70,62.2,479.2,1,1,1,1
7486943,1,1,1,0.008,-0.050,0.100,0.000,2,1,1303,2819,0,0,1,2,0.00,0.00,0.274,-0.304,9.696,-0.366,-0.427,-0.061,28.14,7.46,7.70,62.8,482.9,1,1,1,1
7496944,1,1,1,0.011,-0.075,0.150,0.000,2,1,1303,2819,0,0,1,2,0.00,0.00,0.285,-0.270,9.688,-0.366,-0.366,-0.122,28.21,7.46,7.70,61.8,475.8,1,1,1,1
7506952,1,1,1,0.011,-0.075,0.150,0.000,2,1,1303,2819,0,0,1,2,0.00,0.00,0.263,-0.300,9.703,-0.427,-0.427,-0.061,28.18,7.46,7.70,66.5,512.2,1,1,1,1
7516958,1,1,1,0.011,-0.075,0.150,0.000,2,1,1303,2819,0,0,1,2,0.00,0.00,0.257,-0.309,9.719,-0.366,-0.427,-0.061,28.20,7.46,7.70,67.2,518.0,1,1,1,1
7526967,1,1,1,0.011,-0.075,0.150,0.000,2,1,1303,2819,0,0,1,2,0.00,0.00,0.268,-0.290,9.719,-0.427,-0.305,0.000,28.20,7.46,7.70,66.2,510.4,1,1,1,1
7536974,1,1,1,0.011,-0.075,0.150,0.000,2,1,1303,2819,0,0,1,2,0.00,0.00,0.272,-0.308,9.723,-0.427,-0.366,0.000,28.17,7.41,7.70,67.0,516.0,1,1,1,1
7546974,1,1,1,0.011,-0.075,0.150,0.000,2,1,1303,2819,0,0,1,2,0.00,0.00,0.271,-0.307,9.705,-0.366,-0.427,-0.061,28.17,7.46,7.70,66.5,511.9,1,1,1,1
7556982,1,1,1,0.011,-0.075,0.150,0.000,2,1,1303,2819,0,0,1,2,0.00,0.00,0.266,-0.277,9.698,-0.305,-0.305,0.000,28.17,7.46,7.69,66.2,509.4,1,1,1,1
7566982,1,1,1,0.011,-0.075,0.150,0.000,2,1,1303,2819,0,0,1,2,0.00,0.00,0.257,-0.282,9.694,-0.366,-0.427,0.000,28.20,7.45,7.70,66.2,510.0,1,1,1,1
7576982,1,1,1,0.011,-0.075,0.150,0.000,2,1,1303,2819,0,0,1,2,0.00,0.00,0.274,-0.287,9.714,-0.366,-0.366,-0.122,28.18,7.46,7.70,66.8,513.8,1,1,1,1
7586982,1,1,1,0.011,-0.075,0.150,0.000,2,1,1303,2819,0,0,1,2,0.00,0.00,0.257,-0.285,9.720,-0.244,-0.366,-0.122,28.19,7.46,7.70,66.8,514.0,1,1,1,1
7596982,1,1,1,0.011,-0.075,0.150,0.000,2,1,1303,2819,0,0,1,2,0.00,0.00,0.275,-0.291,9.709,-0.305,-0.366,-0.061,28.16,7.42,7.71,66.0,508.9,1,1,1,1
7606982,1,1,1,0.011,-0.075,0.150,0.000,2,1,1303,2819,0,0,1,2,0.00,0.00,0.288,-0.306,9.710,-0.366,-0.366,-0.061,28.22,7.42,7.70,67.5,520.0,1,1,1,1
7616989,1,1,1,0.011,-0.075,0.150,0.000,2,1,1303,2819,0,0,1,2,0.00,0.00,0.284,-0.281,9.723,-0.305,-0.366,-0.061,28.23,7.45,7.69,65.8,505.9,1,1,1,1
7626997,1,1,1,0.011,-0.075,0.150,0.000,2,1,1303,2819,0,0,1,2,0.00,0.00,0.274,-0.277,9.687,-0.305,-0.366,0.000,28.21,7.46,7.70,66.8,513.9,1,1,1,1
7636997,1,1,1,0.011,-0.075,0.150,0.000,2,1,1303,2819,0,0,1,2,0.00,0.00,0.265,-0.291,9.705,-0.305,-0.305,-0.061,28.19,7.44,7.70,66.8,513.7,1,1,1,1
7647004,1,1,1,0.011,-0.075,0.150,0.000,2,1,1303,2819,0,0,1,2,0.00,0.00,0.277,-0.299,9.716,-0.366,-0.366,-0.061,28.15,7.44,7.70,66.5,511.9,1,1,1,1
7657012,1,1,1,0.011,-0.075,0.150,0.000,2,1,1303,2819,0,0,1,2,0.00,0.00,0.277,-0.284,9.707,-0.366,-0.427,0.000,28.18,7.45,7.69,66.8,513.6,1,1,1,1
7667012,1,1,1,0.011,-0.075,0.150,0.000,2,1,1303,2819,0,0,1,2,0.00,0.00,0.276,-0.287,9.687,-0.366,-0.427,0.000,28.17,7.42,7.69,67.2,517.3,1,1,1,1
7677019,1,1,1,0.011,-0.075,0.150,0.000,2,1,1303,2819,0,0,1,2,0.00,0.00,0.253,-0.300,9.725,-0.366,-0.305,-0.122,28.20,7.46,7.70,66.2,509.9,1,1,1,1
7687028,1,1,1,0.011,-0.075,0.150,0.000,2,1,1303,2819,0,0,1,2,0.00,0.00,0.267,-0.298,9.723,-0.366,-0.305,-0.122,28.18,7.45,7.70,66.5,512.0,1,1,1,1
7697028,1,1,1,0.011,-0.075,0.150,0.000,2,1,1303,2819,0,0,1,2,0.00,0.00,0.266,-0.294,9.694,-0.366,-0.427,-0.061,28.19,7.45,7.71,67.0,516.6,1,1,1,1
7707028,1,1,1,0.011,-0.075,0.150,0.000,2,1,1303,2819,0,0,1,2,0.00,0.00,0.255,-0.282,9.731,-0.305,-0.366,0.000,28.17,7.45,7.70,66.2,510.5,1,1,1,1
7717028,1,1,1,0.011,-0.075,0.150,0.000,2,1,1303,2819,0,0,1,2,0.00,0.00,0.248,-0.280,9.719,-0.366,-0.366,-0.061,28.17,7.47,7.70,67.2,518.0,1,1,1,1
7727028,1,1,1,0.011,-0.075,0.150,0.000,2,1,1303,2819,0,0,1,2,0.00,0.00,0.257,-0.280,9.707,-0.366,-0.366,-0.061,28.17,7.46,7.69,66.0,507.6,1,1,1,1
7737034,1,1,1,0.011,-0.075,0.150,0.000,2,1,1303,2819,0,0,1,2,0.00,0.00,0.272,-0.299,9.719,-0.366,-0.305,-0.122,28.18,7.46,7.70,66.8,513.9,1,1,1,1
7747034,1,1,1,0.011,-0.075,0.150,0.000,2,1,1303,2819,0,0,1,2,0.00,0.00,0.300,-0.296,9.710,-0.366,-0.305,-0.061,28.20,7.45,7.69,66.8,513.6,1,1,1,1
7757043,1,1,1,0.011,-0.075,0.150,0.000,2,1,1303,2819,0,0,1,2,0.00,0.00,0.256,-0.284,9.706,-0.366,-0.366,0.000,28.17,7.44,7.70,66.5,512.1,1,1,1,1
7767043,1,1,1,0.011,-0.075,0.150,0.000,2,1,1303,2819,0,0,1,2,0.00,0.00,0.247,-0.289,9.719,-0.305,-0.366,0.061,28.15,7.46,7.70,67.0,516.2,1,1,1,1
7777050,1,1,1,0.011,-0.075,0.150,0.000,2,1,1303,2819,0,0,1,2,0.00,0.00,0.262,-0.292,9.704,-0.183,-0.366,0.000,28.16,7.45,7.70,66.5,512.2,1,1,1,1
7787064,1,1,1,0.011,-0.075,0.150,0.000,2,1,1303,2819,0,0,1,2,0.00,0.00,0.271,-0.301,9.714,-0.427,-0.366,0.000,28.16,7.45,7.70,66.0,508.3,1,1,1,1
7797073,1,1,1,0.011,-0.075,0.150,0.000,2,1,1303,2819,0,0,1,2,0.00,0.00,0.262,-0.309,9.685,-0.244,-0.366,-0.122,28.16,7.42,7.70,66.2,510.3,1,1,1,1
7807073,1,1,1,0.011,-0.075,0.150,0.000,2,1,1303,2819,0,0,1,2,0.00,0.00,0.286,-0.289,9.680,-0.366,-0.427,-0.061,28.17,7.42,7.70,67.5,519.8,1,1,1,1
7817073,1,1,1,0.011,-0.075,0.150,0.000,2,1,1303,2819,0,0,1,2,0.00,0.00,0.286,-0.299,9.714,-0.366,-0.427,-0.061,28.21,7.46,7.70,66.2,509.9,1,1,1,1
7827073,1,1,1,0.011,-0.075,0.150,0.000,2,1,1303,2819,0,0,1,2,0.00,0.00,0.278,-0.278,9.714,-0.305,-0.427,-0.061,28.17,7.45,7.70,66.5,512.2,1,1,1,1
7837073,1,1,1,0.011,-0.075,0.150,0.000,2,1,1303,2819,0,0,1,2,0.00,0.00,0.277,-0.290,9.707,-0.366,-0.366,-0.061,28.18,7.45,7.70,66.5,512.2,1,1,1,1
7847080,1,1,1,0.011,-0.075,0.150,0.000,2,1,1303,2819,0,0,1,2,0.00,0.00,0.261,-0.300,9.726,-0.366,-0.366,-0.061,28.18,7.46,7.71,66.8,514.4,1,1,1,1
7857080,1,1,1,0.011,-0.075,0.150,0.000,2,1,1303,2819,0,0,1,2,0.00,0.00,0.266,-0.277,9.713,-0.244,-0.366,-0.061,28.20,7.46,7.70,65.8,506.2,1,1,1,1
7867092,1,1,1,0.011,-0.075,0.150,0.000,2,1,1303,2819,0,0,1,2,0.00,0.00,0.262,-0.278,9.702,-0.366,-0.366,-0.061,28.16,7.40,7.69,67.0,515.3,1,1,1,1
7877104,1,1,1,0.011,-0.075,0.150,0.000,2,1,1303,2819,0,0,1,2,0.00,0.00,0.268,-0.290,9.715,-0.366,-0.366,-0.122,28.22,7.46,7.69,65.8,505.9,1,1,1,1
7887119,1,1,1,0.011,-0.075,0.150,0.000,2,1,1303,2819,0,0,1,2,0.00,0.00,0.268,-0.292,9.726,-0.305,-0.427,-0.122,28.16,7.46,7.70,67.2,517.9,1,1,1,1
7897119,1,1,1,0.011,-0.075,0.150,0.000,2,1,1303,2819,0,0,1,2,0.00,0.00,0.267,-0.297,9.722,-0.427,-0.427,-0.061,28.13,7.45,7.69,66.5,511.7,1,1,1,1
7907126,1,1,1,0.011,-0.075,0.150,0.000,2,1,1303,2819,0,0,1,2,0.00,0.00,0.250,-0.306,9.719,-0.427,-0.366,0.000,28.13,7.46,7.70,66.0,508.4,1,1,1,1
7917134,1,1,1,0.011,-0.075,0.150,0.000,2,1,1303,2819,0,0,1,2,0.00,0.00,0.260,-0.299,9.690,-0.366,-0.427,-0.061,28.17,7.45,7.69,66.8,513.6,1,1,1,1
7927134,1,1,1,0.011,-0.075,0.150,0.000,2,1,1303,2819,0,0,1,2,0.00,0.00,0.265,-0.297,9.717,-0.305,-0.366,-0.061,28.21,7.46,7.70,66.8,514.0,1,1,1,1
7937134,1,1,1,0.011,-0.075,0.150,0.000,2,1,1303,2819,0,0,1,2,0.00,0.00,0.264,-0.291,9.729,-0.305,-0.366,-0.061,28.20,7.45,7.70,66.2,510.1,1,1,1,1
7947134,1,1,1,0.011,-0.075,0.150,0.000,2,1,1303,2819,0,0,1,2,0.00,0.00,0.263,-0.293,9.692,-0.305,-0.427,0.000,28.16,7.45,7.70,66.8,514.1,1,1,1,1
7957141,1,1,1,0.011,-0.075,0.150,0.000,2,1,1303,2819,0,0,1,2,0.00,0.00,0.269,-0.290,9.707,-0.305,-0.427,-0.061,28.19,7.46,7.70,66.8,513.8,1,1,1,1
7967149,1,1,1,0.011,-0.075,0.150,0.000,2,1,1303,2819,0,0,1,2,0.00,0.00,0.259,-0.299,9.722,-0.366,-0.366,0.061,28.15,7.45,7.70,66.5,512.1,1,1,1,1
7977156,1,1,1,0.011,-0.075,0.150,0.000,2,1,1303,2819,0,0,1,2,0.00,0.00,0.265,-0.288,9.719,-0.366,-0.366,0.000,28.17,7.46,7.70,66.8,514.1,1,1,1,1
7987156,1,1,1,0.011,-0.075,0.150,0.000,2,1,1303,2819,0,0,1,2,0.00,0.00,0.253,-0.297,9.688,-0.366,-0.427,0.000,28.20,7.44,7.70,66.8,514.1,1,1,1,1
7997156,1,1,1,0.011,-0.075,0.150,0.000,2,1,1303,2819,0,0,1,2,0.00,0.00,0.265,-0.292,9.703,-0.305,-0.366,0.000,28.20,7.46,7.70,66.5,512.3,1,1,1,1
8007164,1,1,1,0.011,-0.075,0.150,0.000,2,1,1303,2819,0,0,1,2,0.00,0.00,0.251,-0.287,9.725,-0.305,-0.366,-0.061,28.21,7.45,7.70,66.0,508.4,1,1,1,1
8017171,1,1,1,0.011,-0.075,0.150,0.000,2,1,1303,2819,0,0,1,2,0.00,0.00,0.254,-0.291,9.704,-0.427,-0.488,-0.061,28.15,7.62,7.70,67.2,517.9,1,1,1,1
8027171,1,1,1,0.011,-0.075,0.150,0.000,2,1,1303,2819,0,0,1,2,0.00,0.00,0.275,-0.322,9.704,-0.244,-0.427,-0.061,28.21,7.44,7.70,65.8,506.5,1,1,1,1
8037179,1,1,1,0.011,-0.075,0.150,0.000,2,1,1303,2819,0,0,1,2,0.00,0.00,0.263,-0.315,9.713,-0.366,-0.366,0.000,28.14,7.46,7.70,67.5,519.9,1,1,1,1
8047186,1,1,1,0.011,-0.075,0.150,0.000,2,1,1303,2819,0,0,1,2,0.00,0.00,0.270,-0.309,9.700,-0.366,-0.366,0.000,28.16,7.44,7.70,66.2,510.0,1,1,1,1
8057195,1,1,1,0.011,-0.075,0.150,0.000,2,1,1303,2819,0,0,1,2,0.00,0.00,0.257,-0.317,9.698,-0.244,-0.427,0.000,28.21,7.45,7.70,66.5,512.3,1,1,1,1
8067201,1,1,1,0.011,-0.075,0.150,0.000,2,1,1303,2819,0,0,1,2,0.00,0.00,0.259,-0.294,9.721,-0.366,-0.427,-0.122,28.16,7.46,7.70,66.2,509.9,1,1,1,1
8077210,1,1,1,0.011,-0.075,0.150,0.000,2,1,1303,2819,0,0,1,2,0.00,0.00,0.260,-0.301,9.705,-0.366,-0.427,-0.061,28.17,7.46,7.70,67.0,515.9,1,1,1,1
8087210,1,1,1,0.011,-0.075,0.150,0.000,2,1,1303,2819,0,0,1,2,0.00,0.00,0.262,-0.313,9.726,-0.366,-0.427,0.000,28.17,7.45,7.70,66.2,510.0,1,1,1,1
8097219,1,1,1,0.011,-0.075,0.150,0.000,2,1,1303,2819,0,0,1,2,0.00,0.00,0.275,-0.295,9.720,-0.305,-0.366,0.000,28.17,7.47,7.70,66.8,514.1,1,1,1,1
8107225,1,1,1,0.011,-0.075,0.150,0.000,2,1,1303,2819,0,0,1,2,0.00,0.00,0.267,-0.310,9.726,-0.488,-0.366,0.000,28.16,7.42,7.70,66.2,510.0,1,1,1,1
8117225,1,1,1,0.011,-0.075,0.150,0.000,2,1,1303,2819,0,0,1,2,0.00,0.00,0.249,-0.309,9.719,-0.427,-0.366,0.122,28.18,7.46,7.70,66.0,508.4,1,1,1,1
8127225,1,1,1,0.011,-0.075,0.150,0.000,2,1,1303,2819,0,0,1,2,0.00,0.00,0.258,-0.294,9.711,-0.305,-0.366,0.000,28.17,7.46,7.70,67.2,517.7,1,1,1,1
8137234,1,1,1,0.011,-0.075,0.150,0.000,2,1,1303,2819,0,0,1,2,0.00,0.00,0.247,-0.306,9.699,-0.366,-0.366,-0.122,28.19,7.46,7.70,65.8,506.2,1,1,1,1
8147234,1,1,1,0.011,-0.075,0.150,0.000,2,1,1303,2819,0,0,1,2,0.00,0.00,0.269,-0.300,9.704,-0.427,-0.305,-0.061,28.19,7.38,7.69,66.5,511.3,1,1,1,1
8157241,1,1,1,0.011,-0.075,0.150,0.000,2,1,1303,2819,0,0,1,2,0.00,0.00,0.281,-0.301,9.728,-0.427,-0.366,-0.061,28.20,7.38,7.69,66.5,511.6,1,1,1,1
8167241,1,1,1,0.011,-0.075,0.150,0.000,2,1,1303,2819,0,0,1,2,0.00,0.00,0.276,-0.299,9.688,-0.305,-0.366,0.000,28.19,7.38,7.69,66.5,511.7,1,1,1,1
8177249,1,1,1,0.011,-0.075,0.150,0.000,2,1,1303,2819,0,0,1,2,0.00,0.00,0.267,-0.314,9.710,-0.305,-0.427,0.000,28.17,7.38,7.69,66.2,509.5,1,1,1,1
8187249,1,1,1,0.011,-0.075,0.150,0.000,2,1,1303,2819,0,0,1,2,0.00,0.00,0.271,-0.286,9.732,-0.305,-0.427,-0.061,28.16,7.39,7.70,66.8,513.8,1,1,1,1
8197256,1,1,1,0.011,-0.075,0.150,0.000,2,1,1303,2819,0,0,1,2,0.00,0.00,0.250,-0.295,9.689,-0.305,-0.366,-0.061,28.17,7.40,7.69,66.2,509.3,1,1,1,1
8207256,1,1,1,0.011,-0.075,0.150,0.000,2,1,1303,2819,0,0,1,2,0.00,0.00,0.259,-0.302,9.684,-0.244,-0.305,-0.122,28.15,7.41,7.69,66.5,511.6,1,1,1,1
8217264,1,1,1,0.011,-0.075,0.150,0.000,2,1,1303,2819,0,0,1,2,0.00,0.00,0.278,-0.293,9.722,-0.305,-0.366,-0.122,28.18,7.41,7.70,66.8,513.8,1,1,1,1
8227271,1,1,1,0.011,-0.075,0.150,0.000,2,1,1303,2819,0,0,1,2,0.00,0.00,0.257,-0.293,9.716,-0.305,-0.427,0.000,28.18,7.40,7.70,66.0,508.3,1,1,1,1
8237271,1,1,1,0.011,-0.075,0.150,0.000,2,1,1303,2819,0,0,1,2,0.00,0.00,0.260,-0.302,9.732,-0.366,-0.427,0.000,28.18,7.40,7.70,66.8,513.9,1,1,1,1
8247271,1,1,1,0.011,-0.075,0.150,0.000,2,1,1303,2819,0,0,1,2,0.00,0.00,0.280,-0.322,9.707,-0.427,-0.427,0.000,28.11,7.37,7.70,66.0,508.0,1,1,1,1
8257271,1,1,1,0.011,-0.075,0.150,0.000,2,1,1303,2819,0,0,1,2,0.00,0.00,0.265,-0.287,9.693,-0.366,-0.427,0.000,28.11,7.38,7.70,66.2,510.0,1,1,1,1
8267279,1,1,1,0.011,-0.075,0.150,0.000,2,1,1303,2819,0,0,1,2,0.00,0.00,0.278,-0.297,9.701,-0.366,-0.366,-0.061,28.19,7.40,7.70,66.2,509.9,1,1,1,1
8277286,1,1,1,0.011,-0.075,0.150,0.000,2,1,1303,2819,0,0,1,2,0.00,0.00,0.262,-0.305,9.723,-0.305,-0.305,-0.122,28.20,7.40,7.69,66.8,513.5,1,1,1,1
8287286,1,1,1,0.011,-0.075,0.150,0.000,2,1,1303,2819,0,0,1,2,0.00,0.00,0.269,-0.289,9.710,-0.366,-0.366,0.000,28.19,7.39,7.70,65.2,502.2,1,1,1,1
8297293,1,1,1,0.011,-0.075,0.150,0.000,2,1,1303,2819,0,0,1,2,0.00,0.00,0.267,-0.300,9.717,-0.305,-0.366,-0.061,28.14,6.44,7.69,67.2,517.4,1,1,1,1
8307301,1,1,1,0.011,-0.075,0.150,0.000,2,1,1303,2819,0,0,1,2,0.00,0.00,0.290,-0.296,9.713,-0.305,-0.366,-0.061,28.18,7.44,7.70,66.2,510.1,1,1,1,1
8317310,1,1,1,0.011,-0.075,0.150,0.000,2,1,1303,2819,0,0,1,2,0.00,0.00,0.280,-0.291,9.704,-0.305,-0.427,0.000,28.15,7.46,7.70,66.8,514.0,1,1,1,1
8327316,1,1,1,0.011,-0.075,0.150,0.000,2,1,1303,2819,0,0,1,2,0.00,0.00,0.257,-0.303,9.694,-0.305,-0.366,0.000,28.21,7.46,7.69,67.0,515.6,1,1,1,1
8337325,1,1,1,0.011,-0.075,0.150,0.000,2,1,1303,2819,0,0,1,2,0.00,0.00,0.272,-0.284,9.731,-0.305,-0.366,0.061,28.21,7.46,7.69,66.5,511.4,1,1,1,1
8347332,1,1,1,0.011,-0.075,0.150,0.000,2,1,1303,2819,0,0,1,2,0.00,0.00,0.276,-0.293,9.705,-0.366,-0.366,-0.122,28.14,7.41,7.70,66.2,510.0,1,1,1,1
8357332,1,1,1,0.011,-0.075,0.150,0.000,2,1,1303,2819,0,0,1,2,0.00,0.00,0.263,-0.313,9.701,-0.366,-0.366,-0.061,28.20,7.46,7.70,66.5,512.0,1,1,1,1
8367332,1,1,1,0.011,-0.075,0.150,0.000,2,1,1303,2819,0,0,1,2,0.00,0.00,0.245,-0.290,9.729,-0.244,-0.366,-0.061,28.21,7.44,7.70,67.2,518.2,1,1,1,1
8377332,1,1,1,0.011,-0.075,0.150,0.000,2,1,1303,2819,0,0,1,2,0.00,0.00,0.253,-0.291,9.707,-0.183,-0.427,-0.061,28.15,7.46,7.71,66.2,510.6,1,1,1,1
8387340,1,1,1,0.011,-0.075,0.150,0.000,2,1,1303,2819,0,0,1,2,0.00,0.00,0.271,-0.278,9.686,-0.366,-0.427,0.061,28.14,7.45,7.70,67.2,517.8,1,1,1,1
8397340,1,1,1,0.011,-0.075,0.150,0.000,2,1,1303,2819,0,0,1,2,0.00,0.00,0.271,-0.312,9.705,-0.305,-0.427,-0.061,28.14,7.47,7.70,66.5,512.0,1,1,1,1
8407340,1,1,1,0.011,-0.075,0.150,0.000,2,1,1303,2819,0,0,1,2,0.00,0.00,0.268,-0.317,9.706,-0.244,-0.488,-0.122,28.14,7.46,7.70,66.2,510.0,1,1,1,1
8417340,1,1,1,0.011,-0.075,0.150,0.000,2,1,1303,2819,0,0,1,2,0.00,0.00,0.280,-0.300,9.703,-0.305,-0.366,-0.122,28.15,7.46,7.70,66.8,513.8,1,1,1,1
8427340,1,1,1,0.011,-0.075,0.150,0.000,2,1,1303,2819,0,0,1,2,0.00,0.00,0.272,-0.306,9.710,-0.366,-0.366,-0.061,28.14,7.45,7.70,66.8,514.2,1,1,1,1
8437347,1,1,1,0.011,-0.075,0.150,0.000,2,1,1303,2819,0,0,1,2,0.00,0.00,0.245,-0.300,9.705,-0.305,-0.366,-0.061,28.14,7.46,7.71,66.2,510.8,1,1,1,1
8447347,1,1,1,0.011,-0.075,0.150,0.000,2,1,1303,2819,0,0,1,2,0.00,0.00,0.261,-0.299,9.698,-0.366,-0.427,-0.061,28.18,7.46,7.71,66.8,514.4,1,1,1,1
8457355,1,1,1,0.011,-0.075,0.150,0.000,2,1,1303,2819,0,0,1,2,0.00,0.00,0.264,-0.296,9.708,-0.305,-0.366,-0.061,28.14,7.44,7.70,66.2,510.4,1,1,1,1
8467362,1,1,1,0.011,-0.075,0.150,0.000,2,1,1303,2819,0,0,1,2,0.00,0.00,0.256,-0.303,9.728,-0.366,-0.366,-0.122,28.19,7.47,7.70,67.0,515.6,1,1,1,1
8477370,1,1,1,0.011,-0.075,0.150,0.000,2,1,1303,2819,0,0,1,2,0.00,0.00,0.265,-0.307,9.696,-0.366,-0.427,-0.061,28.19,7.44,7.69,67.0,515.5,1,1,1,1
8487370,1,1,1,0.011,-0.075,0.150,0.000,2,1,1303,2819,0,0,1,2,0.00,0.00,0.281,-0.284,9.704,-0.244,-0.366,0.000,28.19,7.46,7.70,66.0,508.0,1,1,1,1
8497377,1,1,1,0.011,-0.075,0.150,0.000,2,1,1303,2819,0,0,1,2,0.00,0.00,0.276,-0.298,9.716,-0.305,-0.427,0.000,28.16,7.46,7.70,66.8,514.0,1,1,1,1
8507377,1,1,1,0.011,-0.075,0.150,0.000,2,1,1303,2819,0,0,1,2,0.00,0.00,0.263,-0.312,9.695,-0.305,-0.366,-0.061,28.12,7.48,7.69,66.2,509.6,1,1,1,1
8517377,1,1,1,0.011,-0.075,0.150,0.000,2,1,1303,2819,0,0,1,2,0.00,0.00,0.281,-0.302,9.700,-0.366,-0.427,-0.061,28.18,7.46,7.70,66.8,513.7,1,1,1,1
8527377,1,1,1,0.011,-0.075,0.150,0.000,2,1,1303,2819,0,0,1,2,0.00,0.00,0.278,-0.301,9.717,-0.366,-0.366,-0.061,28.16,7.46,7.69,66.8,513.6,1,1,1,1
8537377,1,1,1,0.011,-0.075,0.150,0.000,2,1,1303,2819,0,0,1,2,0.00,0.00,0.278,-0.293,9.714,-0.366,-0.305,-0.122,28.17,7.46,7.70,66.2,510.2,1,1,1,1
8547377,1,1,1,0.011,-0.075,0.150,0.000,2,1,1303,2819,0,0,1,2,0.00,0.00,0.274,-0.300,9.709,-0.366,-0.305,-0.122,28.15,7.47,7.71,66.0,508.6,1,1,1,1
8557386,1,1,1,0.011,-0.075,0.150,0.000,2,1,1303,2819,0,0,1,2,0.00,0.00,0.272,-0.289,9.716,-0.305,-0.427,-0.122,28.16,7.46,7.70,66.8,514.0,1,1,1,1
8567392,1,1,1,0.011,-0.075,0.150,0.000,2,1,1303,2819,0,0,1,2,0.00,0.00,0.242,-0.290,9.693,-0.305,-0.366,0.000,28.18,7.47,7.70,66.2,510.4,1,1,1,1
8577392,1,1,1,0.011,-0.075,0.150,0.000,2,1,1303,2819,0,0,1,2,0.00,0.00,0.261,-0.283,9.718,-0.366,-0.427,0.000,28.17,7.47,7.69,66.8,513.6,1,1,1,1
8587399,1,1,1,0.011,-0.075,0.150,0.000,2,1,1303,2819,0,0,1,2,0.00,0.00,0.289,-0.303,9.710,-0.427,-0.366,-0.061,28.16,7.45,7.68,66.8,512.7,1,1,1,1
8597408,1,1,1,0.011,-0.075,0.150,0.000,2,1,1303,2819,0,0,1,2,0.00,0.00,0.275,-0.299,9.717,-0.366,-0.366,-0.061,28.16,7.45,7.70,66.0,508.2,1,1,1,1
8607416,1,1,1,0.011,-0.075,0.150,0.000,2,1,1303,2819,0,0,1,2,0.00,0.00,0.289,-0.282,9.677,-0.305,-0.305,-0.061,28.18,7.46,7.70,66.5,512.2,1,1,1,1
8617423,1,1,1,0.011,-0.075,0.150,0.000,2,1,1303,2819,0,0,1,2,0.00,0.00,0.283,-0.274,9.728,-0.427,-0.305,0.000,28.18,7.46,7.70,66.0,508.3,1,1,1,1
8627431,1,1,1,0.011,-0.075,0.150,0.000,2,1,1303,2819,0,0,1,2,0.00,0.00,0.261,-0.284,9.707,-0.427,-0.366,-0.061,28.19,7.46,7.71,66.8,514.4,1,1,1,1
8637438,1,1,1,0.011,-0.075,0.150,0.000,2,1,1303,2819,0,0,1,2,0.00,0.00,0.283,-0.293,9.697,-0.427,-0.366,-0.061,28.19,7.46,7.69,66.0,507.9,1,1,1,1
8647438,1,1,1,0.011,-0.075,0.150,0.000,2,1,1303,2819,0,0,1,2,0.00,0.00,0.265,-0.302,9.706,-0.305,-0.305,0.000,28.19,7.42,7.70,67.5,519.5,1,1,1,1
8657446,1,1,1,0.011,-0.075,0.150,0.000,2,1,1303,2819,0,0,1,2,0.00,0.00,0.278,-0.300,9.738,-0.244,-0.427,-0.061,28.19,7.46,7.70,65.8,506.3,1,1,1,1
8667453,1,1,1,0.011,-0.075,0.150,0.000,2,1,1303,2819,0,0,1,2,0.00,0.00,0.257,-0.306,9.737,-0.366,-0.427,-0.061,28.15,7.46,7.70,67.0,515.9,1,1,1,1
8677453,1,1,1,0.011,-0.075,0.150,0.000,2,1,1303,2819,0,0,1,2,0.00,0.00,0.270,-0.286,9.708,-0.427,-0.366,-0.061,28.22,7.46,7.69,66.5,511.6,1,1,1,1
8687461,1,1,1,0.011,-0.075,0.150,0.000,2,1,1303,2819,0,0,1,2,0.00,0.00,0.280,-0.301,9.698,-0.366,-0.366,-0.061,28.21,7.46,7.70,66.2,510.2,1,1,1,1
8697468,1,1,1,0.015,-0.100,0.200,0.000,2,1,1303,2819,0,0,1,2,0.00,0.00,0.253,-0.283,9.717,-0.366,-0.427,-0.061,28.18,7.47,7.71,65.8,506.8,1,1,1,1
8707477,1,1,1,0.015,-0.100,0.200,0.000,2,1,1303,2819,0,0,1,2,0.00,0.00,0.265,-0.302,9.713,-0.366,-0.305,-0.061,28.19,7.46,7.70,74.0,569.8,1,1,1,1
8717483,1,1,1,0.015,-0.100,0.200,0.000,2,1,1303,2819,0,0,1,2,0.00,0.00,0.269,-0.289,9.717,-0.366,-0.305,-0.122,28.17,7.45,7.69,72.2,555.3,1,1,1,1
8727483,1,1,1,0.015,-0.100,0.200,0.000,2,1,1303,2819,0,0,1,2,0.00,0.00,0.270,-0.296,9.716,-0.305,-0.427,-0.122,28.17,7.46,7.69,73.2,563.5,1,1,1,1
8737492,1,1,1,0.015,-0.100,0.200,0.000,2,1,1303,2819,0,0,1,2,0.00,0.00,0.265,-0.291,9.714,-0.366,-0.427,-0.061,28.19,7.42,7.69,73.2,563.3,1,1,1,1
8747499,1,1,1,0.015,-0.100,0.200,0.000,2,1,1303,2819,0,0,1,2,0.00,0.00,0.275,-0.296,9.714,-0.366,-0.366,-0.061,28.18,7.45,7.70,73.0,562.1,1,1,1,1
8757507,1,1,1,0.015,-0.100,0.200,0.000,2,1,1303,2819,0,0,1,2,0.00,0.00,0.280,-0.296,9.713,-0.366,-0.366,-0.122,28.16,7.46,7.70,73.5,565.8,1,1,1,1
8767514,1,1,1,0.015,-0.100,0.200,0.000,2,1,1303,2819,0,0,1,2,0.00,0.00,0.272,-0.290,9.720,-0.366,-0.366,-0.061,28.17,7.45,7.70,73.2,563.9,1,1,1,1
8777514,1,1,1,0.015,-0.100,0.200,0.000,2,1,1303,2819,0,0,1,2,0.00,0.00,0.260,-0.278,9.722,-0.305,-0.366,0.000,28.15,7.46,7.70,73.0,561.9,1,1,1,1
8787522,1,1,1,0.015,-0.100,0.200,0.000,2,1,1303,2819,0,0,1,2,0.00,0.00,0.256,-0.285,9.710,-0.366,-0.366,-0.061,28.15,7.47,7.70,72.5,558.1,1,1,1,1
8797529,1,1,1,0.015,-0.100,0.200,0.000,2,1,1303,2819,0,0,1,2,0.00,0.00,0.257,-0.296,9.694,-0.366,-0.366,-0.122,28.20,7.45,7.70,74.0,569.6,1,1,1,1
8807529,1,1,1,0.015,-0.100,0.200,0.000,2,1,1303,2819,0,0,1,2,0.00,0.00,0.284,-0.287,9.689,-0.244,-0.366,-0.122,28.16,7.46,7.70,72.2,556.1,1,1,1,1
8817537,1,1,1,0.015,-0.100,0.200,0.000,2,1,1303,2819,0,0,1,2,0.00,0.00,0.277,-0.305,9.718,-0.305,-0.427,-0.061,28.17,7.45,7.70,74.0,569.6,1,1,1,1
8827537,1,1,1,0.015,-0.100,0.200,0.000,2,1,1303,2819,0,0,1,2,0.00,0.00,0.258,-0.295,9.716,-0.244,-0.366,0.000,28.18,7.44,7.69,72.8,559.7,1,1,1,1
8837544,1,1,1,0.015,-0.100,0.200,0.000,2,1,1303,2819,0,0,1,2,0.00,0.00,0.260,-0.302,9.710,-0.305,-0.427,-0.061,28.16,7.46,7.70,73.5,566.0,1,1,1,1
8847553,1,1,1,0.015,-0.100,0.200,0.000,2,1,1303,2819,0,0,1,2,0.00,0.00,0.263,-0.297,9.729,-0.305,-0.244,-0.061,28.16,7.46,7.69,72.8,559.8,1,1,1,1
8857568,1,1,1,0.015,-0.100,0.200,0.000,2,1,1303,2819,0,0,1,2,0.00,0.00,0.269,-0.278,9.720,-0.305,-0.305,-0.061,28.18,7.46,7.69,74.0,569.2,1,1,1,1
8867573,1,1,1,0.015,-0.100,0.200,0.000,2,1,1303,2819,0,0,1,2,0.00,0.00,0.283,-0.291,9.733,-0.366,-0.366,-0.061,28.16,7.42,7.68,72.2,555.2,1,1,1,1
8877574,1,1,1,0.015,-0.100,0.200,0.000,2,1,1303,2819,0,0,1,2,0.00,0.00,0.279,-0.309,9.735,-0.427,-0.305,-0.061,28.17,7.46,7.70,73.8,567.6,1,1,1,1
8887583,1,1,1,0.015,-0.100,0.200,0.000,2,1,1303,2819,0,0,1,2,0.00,0.00,0.248,-0.290,9.706,-0.366,-0.366,-0.122,28.22,7.46,7.69,72.8,559.4,1,1,1,1
8897583,1,1,1,0.015,-0.100,0.200,0.000,2,1,1303,2819,0,0,1,2,0.00,0.00,0.246,-0.298,9.714,-0.305,-0.366,-0.061,28.19,7.46,7.70,72.5,558.3,1,1,1,1
8907590,1,1,1,0.015,-0.100,0.200,0.000,2,1,1303,2819,0,0,1,2,0.00,0.00,0.274,-0.321,9.725,-0.366,-0.366,-0.122,28.21,7.45,7.69,73.5,565.3,1,1,1,1
8917590,1,1,1,0.015,-0.100,0.200,0.000,2,1,1303,2819,0,0,1,2,0.00,0.00,0.282,-0.290,9.710,-0.366,-0.366,-0.122,28.12,7.44,7.70,73.5,565.8,1,1,1,1
8927598,1,1,1,0.015,-0.100,0.200,0.000,2,1,1303,2819,0,0,1,2,0.00,0.00,0.260,-0.312,9.720,-0.366,-0.305,-0.061,28.21,7.46,7.69,73.0,561.6,1,1,1,1
8937598,1,1,1,0.015,-0.100,0.200,0.000,2,1,1303,2819,0,0,1,2,0.00,0.00,0.249,-0.312,9.711,-0.305,-0.366,-0.061,28.16,7.45,7.69,73.0,561.5,1,1,1,1
8947598,1,1,1,0.015,-0.100,0.200,0.000,2,1,1303,2819,0,0,1,2,0.00,0.00,0.265,-0.294,9.719,-0.366,-0.427,-0.061,28.21,7.46,7.69,73.8,567.4,1,1,1,1
8957598,1,1,1,0.015,-0.100,0.200,0.000,2,1,1303,2819,0,0,1,2,0.00,0.00,0.256,-0.305,9.732,-0.366,-0.427,-0.183,28.17,7.40,7.69,72.8,559.5,1,1,1,1
8967598,1,1,1,0.015,-0.100,0.200,0.000,2,1,1303,2819,0,0,1,2,0.00,0.00,0.252,-0.305,9.717,-0.366,-0.427,-0.061,28.17,7.45,7.69,73.0,561.7,1,1,1,1
8977605,1,1,1,0.015,-0.100,0.200,0.000,2,1,1303,2819,0,0,1,2,0.00,0.00,0.278,-0.296,9.697,-0.427,-0.305,-0.061,28.20,7.41,7.69,72.8,559.4,1,1,1,1
8987605,1,1,1,0.015,-0.100,0.200,0.000,2,1,1303,2819,0,0,1,2,0.00,0.00,0.262,-0.292,9.694,-0.427,-0.366,0.000,28.16,7.41,7.70,73.8,567.7,1,1,1,1
8997605,1,1,1,0.015,-0.100,0.200,0.000,2,1,1303,2819,0,0,1,2,0.00,0.00,0.257,-0.290,9.705,-0.427,-0.366,0.000,28.20,7.46,7.69,72.8,559.4,1,1,1,1
9007605,1,1,1,0.015,-0.100,0.200,0.000,2,1,1303,2819,0,0,1,2,0.00,0.00,0.262,-0.309,9.714,-0.366,-0.427,0.061,28.20,7.44,7.70,72.8,560.0,1,1,1,1
9017605,1,1,1,0.015,-0.100,0.200,0.000,2,1,1303,2819,0,0,1,2,0.00,0.00,0.260,-0.307,9.708,-0.427,-0.427,-0.061,28.19,7.46,7.69,72.8,559.3,1,1,1,1
9027605,1,1,1,0.015,-0.100,0.200,0.000,2,1,1303,2819,0,0,1,2,0.00,0.00,0.257,-0.298,9.711,-0.305,-0.427,0.000,28.19,7.46,7.69,73.2,563.7,1,1,1,1
9037605,1,1,1,0.015,-0.100,0.200,0.000,2,1,1303,2819,0,0,1,2,0.00,0.00,0.263,-0.291,9.698,-0.305,-0.366,-0.061,28.21,7.44,7.70,73.0,561.9,1,1,1,1
9047605,1,1,1,0.015,-0.100,0.200,0.000,2,1,1303,2819,0,0,1,2,0.00,0.00,0.265,-0.322,9.703,-0.305,-0.366,-0.061,28.18,7.46,7.70,73.2,563.8,1,1,1,1
9057605,1,1,1,0.015,-0.100,0.200,0.000,2,1,1303,2819,0,0,1,2,0.00,0.00,0.273,-0.294,9.703,-0.305,-0.366,-0.122,28.18,7.46,7.69,73.5,565.3,1,1,1,1
9067613,1,1,1,0.015,-0.100,0.200,0.000,2,1,1303,2819,0,0,1,2,0.00,0.00,0.266,-0.293,9.703,-0.366,-0.305,-0.122,28.20,7.45,7.70,72.2,556.1,1,1,1,1
9077620,1,1,1,0.015,-0.100,0.200,0.000,2,1,1303,2819,0,0,1,2,0.00,0.00,0.277,-0.293,9.708,-0.305,-0.366,-0.122,28.19,7.46,7.70,74.0,569.7,1,1,1,1
9087628,1,1,1,0.015,-0.100,0.200,0.000,2,1,1303,2819,0,0,1,2,0.00,0.00,0.266,-0.293,9.713,-0.305,-0.366,-0.122,28.18,7.45,7.69,73.0,561.7,1,1,1,1
9097635,1,1,1,0.015,-0.100,0.200,0.000,2,1,1303,2819,0,0,1,2,0.00,0.00,0.268,-0.289,9.706,-0.305,-0.366,-0.122,28.15,7.40,7.70,73.2,563.8,1,1,1,1
9107644,1,1,1,0.015,-0.100,0.200,0.000,2,1,1303,2819,0,0,1,2,0.00,0.00,0.253,-0.310,9.716,-0.366,-0.305,-0.061,28.17,7.46,7.69,73.2,563.3,1,1,1,1
9117650,1,1,1,0.015,-0.100,0.200,0.000,2,1,1303,2819,0,0,1,2,0.00,0.00,0.259,-0.303,9.738,-0.305,-0.366,0.000,28.21,7.46,7.69,72.8,559.2,1,1,1,1
9127650,1,1,1,0.015,-0.100,0.200,0.000,2,1,1303,2819,0,0,1,2,0.00,0.00,0.282,-0.311,9.709,-0.244,-0.488,0.000,28.23,7.44,7.69,72.5,557.8,1,1,1,1
9137650,1,1,1,0.015,-0.100,0.200,0.000,2,1,1303,2819,0,0,1,2,0.00,0.00,0.259,-0.310,9.720,-0.427,-0.366,-0.061,28.18,7.46,7.70,73.8,567.6,1,1,1,1
9147651,1,1,1,0.015,-0.100,0.200,0.000,2,1,1303,2819,0,0,1,2,0.00,0.00,0.254,-0.308,9.676,-0.366,-0.427,0.061,28.18,7.46,7.68,72.5,557.1,1,1,1,1
9157666,1,1,1,0.015,-0.100,0.200,0.000,2,1,1303,2819,0,0,1,2,0.00,0.00,0.277,-0.298,9.711,-0.366,-0.427,0.061,28.13,7.45,7.70,73.2,563.8,1,1,1,1
9167674,1,1,1,0.015,-0.100,0.200,0.000,2,1,1303,2819,0,0,1,2,0.00,0.00,0.289,-0.308,9.698,-0.366,-0.427,-0.061,28.19,7.46,7.69,73.0,561.3,1,1,1,1
9177674,1,1,1,0.015,-0.100,0.200,0.000,2,1,1303,2819,0,0,1,2,0.00,0.00,0.262,-0.310,9.717,-0.366,-0.427,0.000,28.17,7.46,7.69,73.2,563.7,1,1,1,1
9187674,1,1,1,0.015,-0.100,0.200,0.000,2,1,1303,2819,0,0,1,2,0.00,0.00,0.257,-0.288,9.718,-0.244,-0.427,-0.061,28.17,7.46,7.69,72.8,559.4,1,1,1,1
9197674,1,1,1,0.015,-0.100,0.200,0.000,2,1,1303,2819,0,0,1,2,0.00,0.00,0.283,-0.297,9.710,-0.427,-0.305,-0.122,28.18,7.46,7.69,73.2,563.7,1,1,1,1
9207674,1,1,1,0.015,-0.100,0.200,0.000,2,1,1303,2819,0,0,1,2,0.00,0.00,0.274,-0.295,9.707,-0.366,-0.305,-0.122,28.16,7.44,7.70,73.2,564.0,1,1,1,1
9217681,1,1,1,0.015,-0.100,0.200,0.000,2,1,1303,2819,0,0,1,2,0.00,0.00,0.251,-0.297,9.676,-0.305,-0.366,-0.061,28.19,7.46,7.70,72.5,558.5,1,1,1,1
9227689,1,1,1,0.015,-0.100,0.200,0.000,2,1,1303,2819,0,0,1,2,0.00,0.00,0.266,-0.294,9.697,-0.366,-0.427,-0.061,28.19,7.45,7.70,73.2,563.9,1,1,1,1
9237689,1,1,1,0.015,-0.100,0.200,0.000,2,1,1303,2819,0,0,1,2,0.00,0.00,0.253,-0.302,9.697,-0.305,-0.366,-0.061,28.17,7.46,7.70,72.8,560.0,1,1,1,1
9247689,1,1,1,0.015,-0.100,0.200,0.000,2,1,1303,2819,0,0,1,2,0.00,0.00,0.247,-0.315,9.720,-0.427,-0.366,-0.061,28.16,7.43,7.69,73.2,563.2,1,1,1,1
9257696,1,1,1,0.015,-0.100,0.200,0.000,2,1,1303,2819,0,0,1,2,0.00,0.00,0.272,-0.315,9.728,-0.366,-0.366,0.061,28.18,7.46,7.69,73.2,563.3,1,1,1,1
9267704,1,1,1,0.015,-0.100,0.200,0.000,2,1,1303,2819,0,0,1,2,0.00,0.00,0.281,-0.299,9.705,-0.305,-0.305,-0.061,28.18,7.45,7.69,72.8,559.6,1,1,1,1
9277715,1,1,1,0.015,-0.100,0.200,0.000,2,1,1303,2819,0,0,1,2,0.00,0.00,0.261,-0.311,9.706,-0.366,-0.366,-0.122,28.18,7.46,7.70,72.0,554.3,1,1,1,1
9287716,1,1,1,0.015,-0.100,0.200,0.000,2,1,1303,2819,0,0,1,2,0.00,0.00,0.262,-0.320,9.690,-0.427,-0.427,-0.122,28.17,7.44,7.70,74.0,569.5,1,1,1,1
9297724,1,1,1,0.015,-0.100,0.200,0.000,2,1,1303,2819,0,0,1,2,0.00,0.00,0.269,-0.289,9.701,-0.366,-0.366,0.000,28.20,7.40,7.69,72.8,559.3,1,1,1,1
9307731,1,1,1,0.015,-0.100,0.200,0.000,2,1,1303,2819,0,0,1,2,0.00,0.00,0.272,-0.295,9.734,-0.305,-0.366,-0.061,28.17,7.47,7.70,73.2,563.8,1,1,1,1
9317739,1,1,1,0.015,-0.100,0.200,0.000,2,1,1303,2819,0,0,1,2,0.00,0.00,0.268,-0.297,9.680,-0.244,-0.366,0.000,28.17,7.46,7.70,73.2,563.8,1,1,1,1
9327739,1,1,1,0.015,-0.100,0.200,0.000,2,1,1303,2819,0,0,1,2,0.00,0.00,0.270,-0.303,9.729,-0.305,-0.366,0.000,28.19,7.45,7.68,73.0,561.0,1,1,1,1
9337746,1,1,1,0.015,-0.100,0.200,0.000,2,1,1303,2819,0,0,1,2,0.00,0.00,0.258,-0.302,9.734,-0.427,-0.305,-0.122,28.20,7.45,7.69,72.8,559.8,1,1,1,1
9347755,1,1,1,0.015,-0.100,0.200,0.000,2,1,1303,2819,0,0,1,2,0.00,0.00,0.274,-0.302,9.697,-0.305,-0.244,-0.061,28.18,7.45,7.69,73.2,563.6,1,1,1,1
9357770,1,1,1,0.015,-0.100,0.200,0.000,2,1,1303,2819,0,0,1,2,0.00,0.00,0.269,-0.318,9.721,-0.427,-0.305,0.000,28.19,7.39,7.69,73.8,567.0,1,1,1,1
9367776,1,1,1,0.015,-0.100,0.200,0.000,2,1,1303,2819,0,0,1,2,0.00,0.00,0.271,-0.318,9.726,-0.427,-0.427,0.000,28.23,7.45,7.69,72.2,555.4,1,1,1,1
9377776,1,1,1,0.015,-0.100,0.200,0.000,2,1,1303,2819,0,0,1,2,0.00,0.00,0.257,-0.287,9.719,-0.305,-0.366,-0.061,28.17,7.43,7.69,72.5,557.7,1,1,1,1
9387785,1,1,1,0.015,-0.100,0.200,0.000,2,1,1303,2819,0,0,1,2,0.00,0.00,0.262,-0.302,9.732,-0.366,-0.427,-0.061,28.20,7.46,7.69,73.2,563.6,1,1,1,1
9397792,1,1,1,0.015,-0.100,0.200,0.000,2,1,1303,2819,0,0,1,2,0.00,0.00,0.280,-0.301,9.725,-0.366,-0.366,0.000,28.19,7.42,7.69,72.8,559.8,1,1,1,1
9407800,1,1,1,0.015,-0.100,0.200,0.000,2,1,1303,2819,0,0,1,2,0.00,0.00,0.258,-0.297,9.708,-0.305,-0.366,0.000,28.18,7.40,7.70,73.2,564.0,1,1,1,1
9417806,1,1,1,0.015,-0.100,0.200,0.000,2,1,1303,2819,0,0,1,2,0.00,0.00,0.263,-0.286,9.709,-0.305,-0.366,-0.061,28.16,7.41,7.70,72.0,554.1,1,1,1,1
9427807,1,1,1,0.015,-0.100,0.200,0.000,2,1,1303,2819,0,0,1,2,0.00,0.00,0.253,-0.302,9.704,-0.366,-0.366,-0.122,28.19,7.41,7.69,73.2,563.4,1,1,1,1
9437807,1,1,1,0.015,-0.100,0.200,0.000,2,1,1303,2819,0,0,1,2,0.00,0.00,0.259,-0.309,9.701,-0.305,-0.305,-0.061,28.22,7.42,7.69,72.8,559.2,1,1,1,1
9447815,1,1,1,0.015,-0.100,0.200,0.000,2,1,1303,2819,0,0,1,2,0.00,0.00,0.271,-0.311,9.717,-0.305,-0.305,-0.061,28.16,7.40,7.69,72.8,559.7,1,1,1,1
9457815,1,1,1,0.015,-0.100,0.200,0.000,2,1,1303,2819,0,0,1,2,0.00,0.00,0.260,-0.311,9.712,-0.366,-0.366,-0.122,28.17,7.38,7.70,73.0,561.8,1,1,1,1
9467815,1,1,1,0.015,-0.100,0.200,0.000,2,1,1303,2819,0,0,1,2,0.00,0.00,0.263,-0.314,9.705,-0.244,-0.366,-0.061,28.19,7.41,7.70,73.5,566.2,1,1,1,1
9477822,1,1,1,0.015,-0.100,0.200,0.000,2,1,1303,2819,0,0,1,2,0.00,0.00,0.260,-0.297,9.705,-0.366,-0.305,-0.122,28.21,7.41,7.70,72.8,560.4,1,1,1,1
9487830,1,1,1,0.015,-0.100,0.200,0.000,2,1,1303,2819,0,0,1,2,0.00,0.00,0.262,-0.297,9.700,-0.366,-0.366,-0.122,28.16,7.44,7.70,74.0,569.6,1,1,1,1
9497831,1,1,1,0.015,-0.100,0.200,0.000,2,1,1303,2819,0,0,1,2,0.00,0.00,0.262,-0.296,9.716,-0.305,-0.366,0.000,28.16,7.44,7.69,72.2,555.4,1,1,1,1
9507846,1,1,1,0.015,-0.100,0.200,0.000,2,1,1303,2819,0,0,1,2,0.00,0.00,0.257,-0.293,9.694,-0.366,-0.366,0.000,28.14,7.46,7.69,73.2,563.6,1,1,1,1
9517861,1,1,1,0.015,-0.100,0.200,0.000,2,1,1303,2819,0,0,1,2,0.00,0.00,0.272,-0.304,9.703,-0.366,-0.366,-0.061,28.18,7.46,7.69,73.2,563.5,1,1,1,1
9527868,1,1,1,0.015,-0.100,0.200,0.000,2,1,1303,2819,0,0,1,2,0.00,0.00,0.276,-0.310,9.707,-0.305,-0.366,0.000,28.18,7.42,7.70,73.0,562.1,1,1,1,1
9537882,1,1,1,0.015,-0.100,0.200,0.000,2,1,1303,2819,0,0,1,2,0.00,0.00,0.266,-0.290,9.681,-0.366,-0.366,-0.061,28.18,7.65,7.70,73.2,563.8,1,1,1,1
9547891,1,1,1,0.015,-0.100,0.200,0.000,2,1,1303,2819,0,0,1,2,0.00,0.00,0.265,-0.306,9.706,-0.305,-0.427,-0.061,28.17,7.46,7.70,73.0,561.8,1,1,1,1
9557898,1,1,1,0.015,-0.100,0.200,0.000,2,1,1303,2819,0,0,1,2,0.00,0.00,0.266,-0.313,9.729,-0.366,-0.366,-0.061,28.19,7.46,7.69,73.0,561.7,1,1,1,1
9567906,1,1,1,0.015,-0.100,0.200,0.000,2,1,1303,2819,0,0,1,2,0.00,0.00,0.245,-0.304,9.709,-0.366,-0.366,-0.061,28.20,7.46,7.70,72.5,558.1,1,1,1,1
9577906,1,1,1,0.015,-0.100,0.200,0.000,2,1,1303,2819,0,0,1,2,0.00,0.00,0.272,-0.293,9.707,-0.305,-0.366,0.000,28.21,7.45,7.69,73.2,563.1,1,1,1,1
9587913,1,1,1,0.015,-0.100,0.200,0.000,2,1,1303,2819,0,0,1,2,0.00,0.00,0.290,-0.287,9.722,-0.244,-0.427,-0.061,28.14,7.39,7.69,72.5,557.5,1,1,1,1
9597922,1,1,1,0.015,-0.100,0.200,0.000,2,1,1303,2819,0,0,1,2,0.00,0.00,0.282,-0.281,9.709,-0.244,-0.366,-0.122,28.21,7.67,7.70,73.0,562.1,1,1,1,1
